ax,ay,az,mx,my,mz,gx,gy,gz,pitch,roll,yaw
0.033,-0.026,1.005,-58.000,-67.000,-130.000,0.000,-0.793,0.061,-0.03,-0.03,0.02
0.034,-0.026,1.007,-58.000,-67.000,-130.000,0.061,-0.854,0.061,-0.03,-0.03,0.02
0.034,-0.023,1.005,-57.000,-65.000,-126.000,0.000,-0.916,0.122,-0.03,-0.02,0.02
0.034,-0.023,1.005,-57.000,-65.000,-126.000,-0.061,-1.038,0.183,-0.03,-0.02,0.02
0.034,-0.026,1.007,-57.000,-65.000,-126.000,0.000,-1.038,0.183,-0.03,-0.02,0.02
0.033,-0.026,1.006,-57.000,-65.000,-126.000,-0.061,-0.854,0.549,-0.03,-0.03,0.03
0.033,-0.025,1.006,-57.000,-65.000,-126.000,0.061,-0.916,0.732,-0.03,-0.02,0.03
0.032,-0.024,1.008,-57.000,-65.000,-126.000,0.000,-0.488,0.244,-0.03,-0.02,0.03
0.033,-0.023,1.008,-56.000,-65.000,-128.000,0.000,0.366,0.000,-0.03,-0.02,0.03
0.034,-0.024,1.004,-56.000,-65.000,-128.000,0.000,-0.549,0.061,-0.03,-0.02,0.03
0.035,-0.027,1.001,-56.000,-65.000,-128.000,-0.061,-1.770,0.244,-0.03,-0.03,0.03
0.033,-0.023,1.009,-56.000,-65.000,-128.000,-0.061,-4.395,1.465,-0.03,-0.02,0.03
0.028,-0.024,1.010,-56.000,-65.000,-128.000,0.000,-3.113,0.732,-0.03,-0.02,0.03
0.029,-0.025,1.008,-57.000,-63.000,-128.000,-0.061,-0.122,-0.061,-0.03,-0.02,0.03
0.029,-0.026,1.005,-57.000,-63.000,-128.000,-0.122,0.549,-0.122,-0.03,-0.03,0.03
0.030,-0.025,1.004,-57.000,-63.000,-128.000,-0.061,-0.061,0.122,-0.03,-0.02,0.03
0.030,-0.024,1.004,-57.000,-63.000,-128.000,-0.061,-0.977,0.122,-0.03,-0.02,0.03
0.030,-0.026,1.007,-57.000,-63.000,-128.000,-0.061,-2.258,0.366,-0.03,-0.03,0.03
0.030,-0.023,1.007,-58.000,-68.000,-127.000,-0.061,-2.319,0.732,-0.03,-0.02,0.03
0.029,-0.023,1.009,-58.000,-68.000,-127.000,-0.061,-1.892,-0.244,-0.03,-0.02,0.03
0.027,-0.025,1.009,-58.000,-68.000,-127.000,0.000,-1.160,-0.366,-0.03,-0.02,0.03
0.027,-0.025,1.006,-58.000,-68.000,-127.000,0.000,0.000,-0.305,-0.03,-0.02,0.03
0.028,-0.024,1.003,-58.000,-68.000,-127.000,-0.061,-0.549,-0.427,-0.03,-0.02,0.03
0.027,-0.023,1.005,-55.000,-64.000,-129.000,-0.122,-2.380,-0.305,-0.03,-0.02,0.03
0.027,-0.026,1.007,-55.000,-64.000,-129.000,-0.061,-3.662,0.000,-0.03,-0.02,0.03
0.024,-0.026,1.002,-55.000,-64.000,-129.000,-0.061,-3.723,0.671,-0.03,-0.03,0.03
0.024,-0.026,1.000,-55.000,-64.000,-129.000,-0.061,-6.042,1.465,-0.03,-0.03,0.03
0.025,-0.024,1.005,-55.000,-64.000,-129.000,-0.183,-8.911,1.526,-0.03,-0.02,0.03
0.018,-0.023,1.007,-55.000,-64.000,-129.000,-0.122,-9.460,1.282,-0.03,-0.02,0.03
0.012,-0.024,1.014,-55.000,-69.000,-125.000,0.244,-6.958,0.793,-0.03,-0.02,0.03
0.014,-0.026,1.005,-55.000,-69.000,-125.000,0.916,-5.066,2.258,-0.02,-0.02,0.03
0.009,-0.026,1.012,-55.000,-69.000,-125.000,1.404,-7.080,2.686,-0.02,-0.02,0.03
0.012,-0.027,1.013,-55.000,-69.000,-125.000,0.732,-3.723,4.150,-0.02,-0.02,0.03
0.014,-0.018,1.005,-55.000,-69.000,-125.000,-0.122,0.183,6.042,-0.02,-0.02,0.03
0.004,-0.025,1.007,-53.000,-69.000,-126.000,0.122,-0.488,4.517,-0.02,-0.02,0.03
0.004,-0.026,1.008,-53.000,-69.000,-126.000,0.000,-0.366,1.709,-0.02,-0.02,0.03
0.008,-0.027,1.007,-53.000,-69.000,-126.000,0.061,-0.427,-0.244,-0.02,-0.02,0.03
0.014,-0.026,1.005,-53.000,-69.000,-126.000,0.183,-0.854,1.709,-0.01,-0.03,0.03
0.005,-0.024,1.006,-53.000,-69.000,-126.000,0.000,-0.305,3.113,-0.01,-0.03,0.03
0.005,-0.026,1.007,-55.000,-68.000,-125.000,-0.061,-0.183,0.122,-0.01,-0.03,0.03
0.010,-0.027,1.008,-55.000,-68.000,-125.000,-0.061,-0.305,-0.183,-0.01,-0.03,0.03
0.009,-0.027,1.007,-55.000,-68.000,-125.000,-0.122,-0.244,0.000,-0.01,-0.03,0.03
0.009,-0.024,1.006,-55.000,-68.000,-125.000,0.000,-0.183,0.061,-0.01,-0.02,0.03
0.010,-0.025,1.005,-55.000,-68.000,-125.000,0.000,-0.183,-0.366,-0.01,-0.03,0.03
0.011,-0.024,1.006,-54.000,-72.000,-128.000,-0.061,-0.366,1.404,-0.01,-0.02,0.03
0.004,-0.024,1.008,-54.000,-72.000,-128.000,0.061,-0.244,1.465,-0.01,-0.02,0.03
0.010,-0.029,1.008,-54.000,-72.000,-128.000,0.061,-0.183,0.610,-0.01,-0.03,0.03
0.009,-0.029,1.007,-54.000,-72.000,-128.000,0.244,-0.366,2.502,-0.01,-0.03,0.03
0.017,-0.025,1.008,-54.000,-72.000,-128.000,0.122,-0.244,2.136,-0.01,-0.03,0.03
0.007,-0.023,1.007,-58.000,-70.000,-125.000,-0.122,0.000,0.000,-0.01,-0.03,0.03
0.001,-0.022,1.006,-58.000,-70.000,-125.000,-0.122,-0.061,-0.916,-0.01,-0.02,0.03
0.009,-0.027,1.008,-58.000,-70.000,-125.000,-0.061,-0.061,-1.099,-0.01,-0.03,0.03
0.009,-0.029,1.007,-58.000,-70.000,-125.000,0.061,-0.244,-0.244,-0.01,-0.03,0.03
0.020,-0.026,1.007,-58.000,-70.000,-125.000,0.061,-0.244,0.244,-0.01,-0.03,0.03
-0.001,-0.024,1.005,-58.000,-70.000,-125.000,-0.183,-0.061,-0.061,-0.01,-0.03,0.03
0.004,-0.022,1.008,-53.000,-67.000,-121.000,-0.122,-0.122,0.122,-0.01,-0.03,0.03
0.010,-0.028,1.007,-53.000,-67.000,-121.000,0.000,-0.183,-0.488,-0.01,-0.03,0.03
0.010,-0.028,1.006,-53.000,-67.000,-121.000,0.000,-0.183,-0.122,-0.01,-0.03,0.03
0.009,-0.025,1.007,-53.000,-67.000,-121.000,-0.061,-0.183,-0.183,-0.01,-0.03,0.03
0.008,-0.024,1.007,-53.000,-67.000,-121.000,-0.061,-0.122,-0.244,-0.01,-0.03,0.03
0.009,-0.027,1.006,-53.000,-68.000,-126.000,0.061,-0.122,-0.183,-0.01,-0.03,0.03
0.009,-0.025,1.007,-53.000,-68.000,-126.000,0.000,-0.183,-0.061,-0.01,-0.03,0.03
0.007,-0.027,1.007,-53.000,-68.000,-126.000,-0.061,-0.122,-0.183,-0.01,-0.03,0.03
0.008,-0.026,1.006,-53.000,-68.000,-126.000,0.000,-0.122,0.000,-0.01,-0.02,0.03
0.008,-0.026,1.007,-53.000,-68.000,-126.000,-0.061,-0.183,0.183,-0.01,-0.03,0.03
0.008,-0.026,1.007,-54.000,-69.000,-126.000,-0.061,-0.122,-0.061,-0.01,-0.03,0.03
0.009,-0.025,1.007,-54.000,-69.000,-126.000,0.000,-0.183,-0.061,-0.01,-0.03,0.03
0.011,-0.026,1.006,-54.000,-69.000,-126.000,0.000,-0.122,0.122,-0.01,-0.03,0.03
0.010,-0.025,1.006,-54.000,-69.000,-126.000,-0.061,-0.061,0.122,-0.01,-0.02,0.03
0.008,-0.024,1.007,-54.000,-69.000,-126.000,0.061,-0.122,0.183,-0.01,-0.02,0.03
0.009,-0.026,1.007,-55.000,-70.000,-125.000,0.061,-0.122,0.183,-0.01,-0.03,0.03
0.008,-0.026,1.006,-55.000,-70.000,-125.000,0.000,-0.183,0.122,-0.01,-0.03,0.03
0.008,-0.025,1.007,-55.000,-70.000,-125.000,-0.061,-0.183,0.061,-0.01,-0.02,0.03
0.008,-0.025,1.006,-55.000,-70.000,-125.000,-0.122,-0.122,0.122,-0.01,-0.03,0.03
0.007,-0.025,1.008,-55.000,-70.000,-125.000,-0.122,-0.061,0.061,-0.01,-0.02,0.03
0.010,-0.026,1.007,-55.000,-70.000,-125.000,-0.061,-0.183,-0.244,-0.01,-0.03,0.03
0.008,-0.026,1.007,-54.000,-69.000,-125.000,0.061,-0.244,0.000,-0.01,-0.03,0.03
0.006,-0.029,1.008,-54.000,-69.000,-125.000,0.122,-0.244,0.122,-0.01,-0.03,0.03
0.006,-0.029,1.007,-54.000,-69.000,-125.000,0.000,-0.122,0.122,-0.01,-0.03,0.03
0.007,-0.027,1.006,-54.000,-69.000,-125.000,-0.122,-0.122,0.061,-0.01,-0.03,0.03
0.006,-0.025,1.006,-54.000,-69.000,-125.000,-0.122,-0.061,0.000,-0.01,-0.03,0.03
0.011,-0.022,1.007,-54.000,-71.000,-122.000,-0.061,-0.061,-0.366,-0.01,-0.02,0.03
0.011,-0.023,1.006,-54.000,-71.000,-122.000,0.000,-0.122,-0.183,-0.01,-0.02,0.03
0.009,-0.026,1.007,-54.000,-71.000,-122.000,0.000,-0.122,0.183,-0.01,-0.03,0.03
0.007,-0.025,1.007,-54.000,-71.000,-122.000,0.000,-0.122,0.183,-0.01,-0.03,0.03
0.009,-0.025,1.007,-54.000,-71.000,-122.000,0.000,-0.183,-0.366,-0.01,-0.02,0.03
0.010,-0.027,1.006,-56.000,-73.000,-125.000,0.000,-0.183,-1.221,-0.01,-0.03,0.03
0.009,-0.026,1.006,-56.000,-73.000,-125.000,0.000,-0.183,-0.366,-0.01,-0.02,0.03
0.009,-0.025,1.008,-56.000,-73.000,-125.000,0.000,-0.183,0.366,-0.01,-0.02,0.03
0.010,-0.026,1.007,-56.000,-73.000,-125.000,0.000,-0.244,0.305,-0.01,-0.02,0.03
0.008,-0.026,1.006,-56.000,-73.000,-125.000,0.000,-0.122,0.366,-0.01,-0.03,0.03
0.008,-0.026,1.007,-55.000,-69.000,-125.000,-0.061,-0.122,0.244,-0.01,-0.02,0.03
0.008,-0.027,1.007,-55.000,-69.000,-125.000,-0.061,-0.183,0.000,-0.01,-0.03,0.03
0.009,-0.026,1.007,-55.000,-69.000,-125.000,-0.061,-0.183,0.061,-0.01,-0.03,0.03
0.010,-0.025,1.006,-55.000,-69.000,-125.000,-0.061,-0.183,0.061,-0.01,-0.02,0.03
0.009,-0.023,1.007,-55.000,-69.000,-125.000,-0.061,-0.122,0.000,-0.01,-0.02,0.03
0.010,-0.026,1.006,-55.000,-69.000,-125.000,-0.122,-0.122,0.061,-0.01,-0.02,0.03
0.007,-0.026,1.007,-54.000,-69.000,-121.000,-0.061,-0.183,0.000,-0.01,-0.03,0.03
0.005,-0.025,1.008,-54.000,-69.000,-121.000,0.000,-0.122,-0.732,-0.01,-0.03,0.03
0.008,-0.024,1.007,-54.000,-69.000,-121.000,-0.122,-0.061,-2.075,-0.01,-0.02,0.03
0.008,-0.024,1.009,-54.000,-69.000,-121.000,-0.122,0.427,-2.747,-0.01,-0.03,0.03
0.009,-0.023,1.008,-54.000,-69.000,-121.000,-0.122,0.671,-3.235,-0.01,-0.02,0.03
0.009,-0.026,1.006,-54.000,-70.000,-126.000,0.000,0.061,-3.113,-0.01,-0.03,0.03
0.007,-0.028,1.007,-54.000,-70.000,-126.000,0.122,-0.183,-1.831,-0.01,-0.03,0.03
0.004,-0.017,1.012,-54.000,-70.000,-126.000,0.061,0.549,-0.488,-0.01,-0.02,0.03
0.013,-0.031,1.025,-54.000,-70.000,-126.000,-0.916,4.883,-2.625,-0.01,-0.03,0.03
0.015,-0.019,1.009,-54.000,-70.000,-126.000,-2.686,10.986,-0.122,-0.01,-0.03,0.03
0.022,-0.028,1.007,-57.000,-69.000,-130.000,0.061,14.282,0.427,-0.01,-0.03,0.03
0.027,-0.021,1.003,-57.000,-69.000,-130.000,-0.977,13.489,0.977,-0.01,-0.03,0.03
0.030,-0.022,1.004,-57.000,-69.000,-130.000,-10.437,8.606,-1.770,-0.01,-0.03,0.03
0.029,-0.010,1.008,-57.000,-69.000,-130.000,-16.174,5.371,-6.592,-0.01,-0.03,0.03
0.033,-0.016,1.011,-57.000,-69.000,-130.000,-17.517,8.362,-7.812,-0.01,-0.03,0.03
0.036,-0.011,1.007,-61.000,-66.000,-127.000,-18.799,6.836,-5.798,-0.01,-0.03,0.03
0.031,0.012,1.044,-61.000,-66.000,-127.000,-24.109,3.723,-5.371,-0.01,-0.03,0.02
0.035,0.017,1.116,-61.000,-66.000,-127.000,-21.118,6.042,-5.798,-0.01,-0.04,0.02
-0.002,0.036,1.035,-61.000,-66.000,-127.000,-11.169,18.982,-5.493,-0.00,-0.04,0.02
0.008,0.028,1.047,-61.000,-66.000,-127.000,-6.409,20.264,-9.460,-0.00,-0.04,0.02
0.043,-0.040,1.146,-86.000,-46.000,-136.000,-7.019,17.578,-13.000,-0.00,-0.04,0.02
0.045,-0.012,1.204,-86.000,-46.000,-136.000,-9.521,28.748,-11.353,0.00,-0.04,0.02
0.053,0.050,1.110,-86.000,-46.000,-136.000,-13.428,44.861,-12.207,0.01,-0.04,0.01
0.074,0.039,0.995,-86.000,-46.000,-136.000,-21.851,47.119,-13.733,0.02,-0.04,0.01
0.115,-0.008,0.957,-86.000,-46.000,-136.000,-23.682,42.664,-9.705,0.02,-0.04,0.01
0.142,0.020,0.966,-86.000,-46.000,-136.000,-14.160,41.016,-3.113,0.03,-0.05,0.01
0.130,0.140,0.988,-126.000,-3.000,-116.000,-10.193,40.649,-2.197,0.03,-0.05,0.01
0.130,0.174,1.075,-126.000,-3.000,-116.000,-5.615,40.466,-8.606,0.04,-0.05,0.01
0.125,0.177,1.179,-126.000,-3.000,-116.000,-16.296,48.096,-18.799,0.04,-0.05,0.00
0.184,0.059,1.087,-126.000,-3.000,-116.000,-36.621,59.509,-29.236,0.05,-0.05,-0.00
0.220,0.018,0.965,-126.000,-3.000,-116.000,-51.392,62.927,-27.649,0.06,-0.06,-0.01
0.231,0.027,0.899,-132.000,40.000,-42.000,-48.950,59.082,-21.301,0.07,-0.07,-0.01
0.247,0.106,0.902,-132.000,40.000,-42.000,-31.677,50.232,-19.409,0.07,-0.07,-0.02
0.249,0.106,0.963,-132.000,40.000,-42.000,-25.085,48.523,-25.391,0.08,-0.08,-0.02
0.263,0.092,1.008,-132.000,40.000,-42.000,-31.128,47.913,-25.330,0.09,-0.08,-0.03
0.291,0.070,1.002,-132.000,40.000,-42.000,-37.476,47.607,-23.376,0.09,-0.09,-0.03
0.283,0.187,1.040,-91.000,37.000,33.000,-42.114,46.082,-16.968,0.10,-0.09,-0.03
0.307,0.160,1.064,-91.000,37.000,33.000,-49.377,55.237,-34.485,0.11,-0.10,-0.04
0.326,0.182,0.997,-91.000,37.000,33.000,-51.453,66.101,-32.532,0.11,-0.11,-0.05
0.359,0.151,0.942,-91.000,37.000,33.000,-57.739,68.237,-30.884,0.12,-0.12,-0.05
0.338,0.187,0.914,-91.000,37.000,33.000,-55.359,62.805,-28.137,0.13,-0.13,-0.06
0.369,0.237,0.946,-91.000,37.000,33.000,-40.222,63.965,-31.250,0.14,-0.14,-0.07
0.407,0.233,0.852,-35.000,4.000,64.000,-48.340,66.101,-42.908,0.15,-0.14,-0.07
0.411,0.231,0.831,-35.000,4.000,64.000,-48.340,62.622,-46.204,0.16,-0.15,-0.08
0.434,0.259,0.895,-35.000,4.000,64.000,-37.842,57.373,-49.988,0.16,-0.16,-0.09
0.442,0.256,0.979,-35.000,4.000,64.000,-38.940,62.683,-58.899,0.17,-0.17,-0.10
0.475,0.204,0.861,-35.000,4.000,64.000,-40.955,75.867,-67.871,0.18,-0.17,-0.12
0.505,0.135,0.746,-6.000,-18.000,51.000,-47.974,73.181,-67.810,0.19,-0.18,-0.13
0.498,0.158,0.754,-6.000,-18.000,51.000,-40.344,62.622,-59.509,0.19,-0.19,-0.14
0.487,0.249,0.797,-6.000,-18.000,51.000,-31.006,62.744,-61.768,0.20,-0.20,-0.16
0.510,0.313,0.875,-6.000,-18.000,51.000,-27.893,69.031,-66.650,0.21,-0.21,-0.17
0.545,0.182,0.807,-6.000,-18.000,51.000,-30.579,81.177,-78.735,0.22,-0.21,-0.18
0.633,0.023,0.709,-2.000,-30.000,44.000,-39.795,80.139,-81.909,0.23,-0.22,-0.20
0.693,-0.026,0.698,-2.000,-30.000,44.000,-53.162,73.059,-70.679,0.23,-0.24,-0.22
0.686,0.084,0.706,-2.000,-30.000,44.000,-48.767,74.463,-49.622,0.24,-0.25,-0.23
0.696,0.179,0.675,-2.000,-30.000,44.000,-44.556,78.796,-41.077,0.25,-0.25,-0.24
0.744,0.173,0.586,-2.000,-30.000,44.000,-43.762,79.407,-45.532,0.26,-0.26,-0.25
0.811,0.162,0.549,-4.000,-38.000,32.000,-60.791,74.341,-60.669,0.27,-0.28,-0.26
0.856,0.117,0.456,-4.000,-38.000,32.000,-63.843,57.922,-65.857,0.27,-0.29,-0.28
0.818,0.164,0.556,-4.000,-38.000,32.000,-47.546,43.457,-55.847,0.27,-0.30,-0.29
0.804,0.163,0.627,-4.000,-38.000,32.000,-40.161,48.584,-49.133,0.28,-0.31,-0.30
0.806,0.193,0.616,-4.000,-38.000,32.000,-36.499,51.819,-46.143,0.28,-0.32,-0.31
0.813,0.229,0.611,-4.000,-38.000,32.000,-27.527,57.251,-46.814,0.29,-0.33,-0.32
0.858,0.068,0.499,-5.000,-41.000,27.000,-21.729,62.866,-53.162,0.29,-0.33,-0.33
0.894,-0.008,0.532,-5.000,-41.000,27.000,-21.790,57.312,-41.870,0.30,-0.34,-0.34
0.933,-0.081,0.587,-5.000,-41.000,27.000,-20.447,61.218,-25.024,0.30,-0.34,-0.35
0.962,-0.040,0.533,-5.000,-41.000,27.000,0.061,72.998,-4.761,0.31,-0.35,-0.35
0.964,-0.045,0.530,-5.000,-41.000,27.000,25.879,81.055,12.329,0.33,-0.34,-0.36
0.930,0.010,0.511,-4.000,-44.000,15.000,50.110,88.989,28.137,0.34,-0.33,-0.36
0.896,0.030,0.436,-4.000,-44.000,15.000,65.125,98.816,37.903,0.36,-0.32,-0.36
0.858,0.069,0.317,-4.000,-44.000,15.000,63.782,99.854,42.664,0.37,-0.31,-0.35
0.885,0.069,0.234,-4.000,-44.000,15.000,53.650,97.290,48.950,0.39,-0.30,-0.35
0.891,0.050,0.145,-4.000,-44.000,15.000,55.054,88.379,56.030,0.40,-0.29,-0.35
0.850,0.126,0.087,-6.000,-47.000,9.000,56.152,67.993,64.270,0.42,-0.28,-0.34
0.866,0.173,0.048,-6.000,-47.000,9.000,47.668,48.706,63.354,0.43,-0.26,-0.33
0.894,0.178,0.048,-6.000,-47.000,9.000,43.152,29.541,61.462,0.43,-0.25,-0.32
0.925,0.241,0.151,-6.000,-47.000,9.000,40.405,15.137,58.655,0.43,-0.24,-0.31
0.903,0.232,0.168,-6.000,-47.000,9.000,41.260,10.254,52.979,0.44,-0.23,-0.30
0.884,0.229,0.092,-1.000,-48.000,7.000,42.725,7.202,52.002,0.44,-0.22,-0.29
0.915,0.149,-0.050,-1.000,-48.000,7.000,42.236,-3.906,52.673,0.44,-0.21,-0.28
0.917,0.108,-0.070,-1.000,-48.000,7.000,49.133,-28.931,62.805,0.43,-0.19,-0.27
0.872,0.148,0.172,-1.000,-48.000,7.000,65.063,-50.720,75.256,0.43,-0.18,-0.25
0.821,0.237,0.268,-1.000,-48.000,7.000,79.834,-50.842,77.942,0.42,-0.15,-0.24
0.808,0.278,0.281,-1.000,-48.000,7.000,90.515,-55.603,73.792,0.41,-0.13,-0.22
0.758,0.227,0.133,1.000,-51.000,12.000,94.971,-74.463,72.571,0.40,-0.11,-0.21
0.650,0.318,0.120,1.000,-51.000,12.000,69.092,-135.010,79.285,0.37,-0.09,-0.19
0.641,0.471,0.355,1.000,-51.000,12.000,58.899,-157.166,75.195,0.35,-0.08,-0.17
0.707,0.467,0.447,1.000,-51.000,12.000,77.515,-169.128,64.331,0.32,-0.06,-0.16
0.700,0.594,0.824,1.000,-51.000,12.000,111.511,-169.495,53.406,0.29,-0.03,-0.15
0.695,0.466,0.754,-1.000,-45.000,21.000,116.272,-116.333,19.897,0.27,-0.01,-0.14
0.616,0.301,0.615,-1.000,-45.000,21.000,97.778,-107.300,6.470,0.25,0.00,-0.14
0.561,0.316,0.620,-1.000,-45.000,21.000,75.134,-121.033,10.864,0.23,0.02,-0.14
0.568,0.384,0.650,-1.000,-45.000,21.000,55.847,-122.192,-8.667,0.20,0.03,-0.14
0.657,0.210,0.844,-1.000,-45.000,21.000,51.758,-112.244,-23.193,0.18,0.04,-0.15
0.660,0.046,1.058,-4.000,-41.000,32.000,49.744,-82.275,-10.132,0.17,0.04,-0.15
0.596,0.045,0.910,-4.000,-41.000,32.000,42.114,-62.988,-1.953,0.15,0.05,-0.15
0.516,0.146,0.783,-4.000,-41.000,32.000,25.269,-51.453,9.460,0.14,0.06,-0.15
0.456,0.215,0.660,-4.000,-41.000,32.000,16.968,-56.458,10.803,0.13,0.06,-0.15
0.479,0.291,0.772,-4.000,-41.000,32.000,15.442,-74.585,5.371,0.12,0.06,-0.15
0.491,0.341,0.900,-4.000,-41.000,32.000,22.461,-78.247,-5.981,0.10,0.07,-0.15
0.481,0.211,1.032,-3.000,-34.000,38.000,27.161,-63.965,-11.230,0.09,0.07,-0.15
0.466,0.080,0.909,-3.000,-34.000,38.000,5.310,-50.903,1.831,0.08,0.07,-0.15
0.438,0.202,0.833,-3.000,-34.000,38.000,-8.667,-47.363,7.385,0.07,0.07,-0.15
0.423,0.271,0.865,-3.000,-34.000,38.000,-8.911,-42.725,3.174,0.06,0.07,-0.15
0.409,0.244,0.845,-3.000,-34.000,38.000,-6.714,-27.893,-6.714,0.06,0.07,-0.15
0.387,0.267,0.811,-5.000,-31.000,46.000,-3.967,-28.320,-3.418,0.05,0.07,-0.15
0.388,0.253,0.931,-5.000,-31.000,46.000,-1.038,-44.800,-5.859,0.04,0.07,-0.16
0.388,0.254,0.963,-5.000,-31.000,46.000,-7.507,-45.593,-15.259,0.03,0.07,-0.16
0.385,0.259,0.927,-5.000,-31.000,46.000,-17.578,-38.208,-26.672,0.02,0.07,-0.16
0.400,0.149,0.854,-5.000,-31.000,46.000,-15.015,-44.800,-26.062,0.01,0.07,-0.17
0.377,0.222,0.924,-6.000,-24.000,46.000,-13.611,-47.302,-13.000,0.00,0.07,-0.17
0.344,0.348,0.926,-6.000,-24.000,46.000,-24.536,-40.588,-21.118,-0.00,0.06,-0.17
0.324,0.432,0.892,-6.000,-24.000,46.000,-32.227,-37.231,-29.541,-0.01,0.06,-0.18
0.320,0.384,0.888,-6.000,-24.000,46.000,-58.167,-37.109,-56.641,-0.02,0.05,-0.19
0.325,0.273,0.910,-6.000,-24.000,46.000,-55.969,-38.025,-65.979,-0.03,0.04,-0.20
0.322,0.257,0.969,-5.000,-7.000,60.000,-23.010,-37.415,-56.519,-0.03,0.04,-0.21
0.328,0.286,0.987,-5.000,-7.000,60.000,-3.418,-31.250,-51.697,-0.04,0.04,-0.22
0.330,0.317,1.086,-5.000,-7.000,60.000,3.052,-26.184,-56.152,-0.04,0.04,-0.23
0.323,0.335,1.098,-5.000,-7.000,60.000,1.953,-12.573,-66.467,-0.05,0.05,-0.24
0.311,0.369,1.066,-5.000,-7.000,60.000,-5.005,0.549,-78.796,-0.05,0.05,-0.25
0.301,0.235,0.956,-5.000,-7.000,60.000,-2.197,-2.136,-78.003,-0.05,0.05,-0.27
0.340,0.225,0.905,4.000,2.000,68.000,-16.907,-12.146,-70.740,-0.05,0.05,-0.28
0.331,0.276,1.064,4.000,2.000,68.000,-15.015,-13.855,-72.815,-0.06,0.05,-0.29
0.353,0.374,1.010,4.000,2.000,68.000,-15.625,-3.052,-91.736,-0.06,0.05,-0.31
0.317,0.210,1.018,4.000,2.000,68.000,-35.034,0.183,-118.774,-0.06,0.04,-0.33
0.314,0.121,1.016,4.000,2.000,68.000,-35.400,3.540,-118.835,-0.06,0.04,-0.35
0.297,0.149,0.966,22.000,-5.000,62.000,-25.757,6.104,-107.910,-0.06,0.04,-0.37
0.304,0.128,0.953,22.000,-5.000,62.000,-28.564,2.869,-96.069,-0.06,0.03,-0.38
0.336,0.236,1.047,22.000,-5.000,62.000,-61.279,11.536,-100.098,-0.06,0.02,-0.40
0.377,0.235,0.884,22.000,-5.000,62.000,-69.946,13.428,-115.845,-0.06,0.01,-0.42
0.346,0.083,0.941,22.000,-5.000,62.000,-63.904,6.653,-116.821,-0.06,0.01,-0.44
0.337,-0.061,1.024,18.000,-18.000,49.000,-49.988,5.005,-100.830,-0.06,-0.00,-0.45
0.345,-0.071,0.942,18.000,-18.000,49.000,-40.100,11.047,-67.322,-0.06,-0.01,-0.47
0.397,0.166,0.870,18.000,-18.000,49.000,-26.123,11.597,-37.170,-0.06,-0.01,-0.47
0.420,0.392,1.026,18.000,-18.000,49.000,-17.639,7.385,-42.603,-0.06,-0.01,-0.48
0.446,0.435,1.089,18.000,-18.000,49.000,-32.532,16.663,-76.416,-0.06,-0.02,-0.49
0.455,0.325,0.960,18.000,-18.000,49.000,-51.636,26.001,-106.750,-0.05,-0.02,-0.51
0.442,0.158,0.730,12.000,-23.000,45.000,-70.251,13.428,-115.662,-0.05,-0.03,-0.53
0.404,0.053,0.715,12.000,-23.000,45.000,-45.410,-10.315,-89.783,-0.06,-0.04,-0.54
0.424,0.030,1.006,12.000,-23.000,45.000,-23.315,-13.733,-72.571,-0.06,-0.04,-0.56
0.480,0.207,1.034,12.000,-23.000,45.000,6.714,2.930,-51.025,-0.06,-0.04,-0.57
0.496,0.129,0.969,12.000,-23.000,45.000,8.972,16.724,-63.110,-0.06,-0.04,-0.58
0.480,-0.047,1.039,4.000,-21.000,38.000,6.165,20.874,-58.960,-0.06,-0.03,-0.59
0.504,0.282,0.986,4.000,-21.000,38.000,-21.790,37.964,-43.457,-0.06,-0.04,-0.59
0.512,0.316,0.878,4.000,-21.000,38.000,-83.496,46.448,-73.059,-0.05,-0.05,-0.61
0.481,0.092,0.760,4.000,-21.000,38.000,-72.205,36.011,-75.684,-0.05,-0.06,-0.62
0.519,0.121,0.853,4.000,-21.000,38.000,-64.087,29.663,-66.711,-0.05,-0.07,-0.63
0.510,0.105,0.935,5.000,-24.000,41.000,-65.063,35.339,-67.627,-0.04,-0.08,-0.64
0.545,0.241,0.858,5.000,-24.000,41.000,-87.341,46.753,-65.613,-0.04,-0.09,-0.65
0.617,0.405,0.895,5.000,-24.000,41.000,-122.131,51.270,-78.857,-0.03,-0.11,-0.67
0.571,0.150,0.840,5.000,-24.000,41.000,-120.483,59.814,-104.370,-0.03,-0.13,-0.69
0.547,0.093,0.809,5.000,-24.000,41.000,-68.970,58.411,-91.370,-0.02,-0.14,-0.70
0.572,0.100,0.728,4.000,-30.000,37.000,-46.814,64.941,-70.557,-0.01,-0.15,-0.72
0.604,0.142,0.616,4.000,-30.000,37.000,-40.771,72.632,-59.631,-0.00,-0.15,-0.73
0.715,0.521,0.555,4.000,-30.000,37.000,-72.815,61.707,-80.811,0.00,-0.16,-0.74
0.729,0.312,0.647,4.000,-30.000,37.000,-57.800,63.049,-116.089,0.01,-0.17,-0.77
0.684,0.089,0.780,4.000,-30.000,37.000,-30.151,62.439,-113.586,0.01,-0.18,-0.79
0.706,0.041,0.680,4.000,-30.000,37.000,-3.418,79.102,-101.074,0.02,-0.18,-0.80
0.749,0.066,0.477,-1.000,-30.000,38.000,7.751,87.708,-86.182,0.03,-0.18,-0.82
0.807,0.328,0.608,-1.000,-30.000,38.000,-34.241,75.806,-85.632,0.04,-0.18,-0.84
0.793,0.007,0.455,-1.000,-30.000,38.000,-35.645,86.304,-118.164,0.05,-0.19,-0.86
0.783,-0.138,0.403,-1.000,-30.000,38.000,-12.207,67.444,-103.760,0.05,-0.19,-0.88
0.793,-0.072,0.541,-1.000,-30.000,38.000,-42.725,54.138,-78.003,0.06,-0.20,-0.89
0.825,0.073,0.618,-1.000,-34.000,32.000,-75.562,70.862,-85.449,0.06,-0.21,-0.91
0.843,0.062,0.478,-1.000,-34.000,32.000,-73.914,77.026,-93.323,0.07,-0.23,-0.93
0.876,0.149,0.472,-1.000,-34.000,32.000,-72.632,72.327,-105.469,0.08,-0.24,-0.95
0.860,-0.096,0.400,-1.000,-34.000,32.000,-46.875,70.068,-121.948,0.08,-0.25,-0.97
0.858,-0.212,0.401,-1.000,-34.000,32.000,-47.974,65.002,-106.567,0.09,-0.26,-0.99
0.874,-0.129,0.395,-4.000,-36.000,30.000,-61.768,63.660,-89.111,0.09,-0.27,-1.01
0.883,-0.056,0.400,-4.000,-36.000,30.000,-75.195,65.002,-92.957,0.10,-0.29,-1.03
0.889,-0.113,0.334,-4.000,-36.000,30.000,-71.533,67.932,-103.027,0.10,-0.30,-1.05
0.896,-0.185,0.299,-4.000,-36.000,30.000,-66.040,57.251,-98.694,0.10,-0.31,-1.07
0.882,-0.301,0.314,-4.000,-36.000,30.000,-58.289,51.453,-87.830,0.10,-0.33,-1.08
0.884,-0.292,0.322,-6.000,-37.000,26.000,-58.716,51.392,-74.585,0.11,-0.34,-1.10
0.908,-0.192,0.286,-6.000,-37.000,26.000,-70.679,51.697,-72.571,0.11,-0.35,-1.11
0.934,-0.204,0.276,-6.000,-37.000,26.000,-87.280,48.340,-77.332,0.11,-0.37,-1.13
0.912,-0.279,0.298,-6.000,-37.000,26.000,-66.833,46.082,-78.796,0.11,-0.38,-1.14
0.911,-0.315,0.240,-6.000,-37.000,26.000,-44.922,45.776,-74.585,0.11,-0.39,-1.16
0.905,-0.332,0.292,-6.000,-37.000,26.000,-33.142,40.161,-68.848,0.11,-0.40,-1.17
0.885,-0.380,0.346,-7.000,-38.000,26.000,-36.865,45.654,-65.918,0.11,-0.41,-1.18
0.885,-0.380,0.334,-7.000,-38.000,26.000,-38.330,56.519,-61.462,0.11,-0.41,-1.20
0.914,-0.316,0.269,-7.000,-38.000,26.000,-22.644,59.937,-59.631,0.12,-0.42,-1.21
0.927,-0.320,0.173,-7.000,-38.000,26.000,-2.563,59.509,-63.049,0.12,-0.42,-1.22
0.891,-0.444,0.168,-7.000,-38.000,26.000,3.784,56.152,-63.782,0.12,-0.42,-1.24
0.857,-0.560,0.221,-8.000,-40.000,25.000,4.578,59.082,-60.364,0.13,-0.43,-1.25
0.852,-0.606,0.103,-8.000,-40.000,25.000,8.057,68.787,-43.701,0.13,-0.43,-1.26
0.949,-0.512,0.092,-8.000,-40.000,25.000,18.555,60.486,-22.583,0.14,-0.42,-1.27
0.927,-0.380,0.114,-8.000,-40.000,25.000,83.801,57.983,-23.621,0.14,-0.41,-1.28
0.874,-0.370,0.005,-8.000,-40.000,25.000,58.167,69.885,-19.409,0.15,-0.40,-1.29
0.890,-0.470,0.025,-11.000,-41.000,23.000,15.869,66.284,-19.531,0.16,-0.40,-1.29
0.881,-0.510,-0.076,-11.000,-41.000,23.000,12.268,66.162,-12.634,0.16,-0.40,-1.30
0.911,-0.491,-0.190,-11.000,-41.000,23.000,35.889,46.997,-3.479,0.17,-0.40,-1.30
0.939,-0.322,-0.243,-11.000,-41.000,23.000,50.964,12.817,-7.751,0.17,-0.39,-1.31
0.924,-0.400,-0.135,-11.000,-41.000,23.000,43.762,2.869,-14.099,0.17,-0.39,-1.31
0.912,-0.462,-0.068,-13.000,-40.000,18.000,19.531,-4.028,-18.616,0.16,-0.38,-1.31
0.917,-0.496,-0.056,-13.000,-40.000,18.000,2.441,-2.502,-17.212,0.16,-0.38,-1.31
0.907,-0.516,-0.070,-13.000,-40.000,18.000,0.000,-2.686,-14.099,0.16,-0.39,-1.32
0.913,-0.425,-0.104,-13.000,-40.000,18.000,0.427,-6.104,-12.207,0.15,-0.39,-1.32
0.903,-0.422,-0.118,-13.000,-40.000,18.000,1.038,-13.245,-20.630,0.15,-0.39,-1.32
0.876,-0.496,-0.064,-13.000,-40.000,18.000,2.319,-20.874,-25.269,0.14,-0.39,-1.32
0.863,-0.524,-0.053,-14.000,-40.000,20.000,4.944,-24.475,-21.240,0.14,-0.39,-1.33
0.840,-0.557,-0.015,-14.000,-40.000,20.000,11.414,-27.466,-12.573,0.13,-0.39,-1.33
0.826,-0.564,-0.006,-14.000,-40.000,20.000,14.465,-26.489,-4.700,0.12,-0.39,-1.33
0.819,-0.557,0.025,-14.000,-40.000,20.000,-1.709,-24.109,5.493,0.12,-0.39,-1.32
0.824,-0.550,0.029,-14.000,-40.000,20.000,-12.207,-20.630,9.766,0.11,-0.39,-1.32
0.856,-0.559,0.030,-14.000,-38.000,20.000,-20.996,-18.250,18.616,0.11,-0.39,-1.32
0.875,-0.559,0.020,-14.000,-38.000,20.000,-22.522,-16.907,29.602,0.11,-0.40,-1.31
0.821,-0.535,0.070,-14.000,-38.000,20.000,-19.653,-16.785,38.391,0.11,-0.40,-1.30
0.837,-0.454,0.008,-14.000,-38.000,20.000,-17.212,-12.634,43.884,0.11,-0.41,-1.30
0.891,-0.286,-0.008,-14.000,-38.000,20.000,-20.874,-15.320,41.687,0.10,-0.41,-1.29
0.892,-0.276,0.007,-11.000,-40.000,25.000,-20.203,-19.287,26.489,0.10,-0.41,-1.28
0.873,-0.347,0.032,-11.000,-40.000,25.000,-0.610,-22.583,18.005,0.10,-0.41,-1.28
0.846,-0.536,-0.074,-11.000,-40.000,25.000,12.878,-28.320,20.325,0.09,-0.41,-1.27
0.812,-0.673,-0.098,-11.000,-40.000,25.000,28.564,-46.509,40.833,0.09,-0.41,-1.26
0.801,-0.735,-0.009,-11.000,-40.000,25.000,39.429,-53.772,53.772,0.08,-0.40,-1.25
0.812,-0.636,0.088,-11.000,-39.000,27.000,66.101,-66.406,88.440,0.07,-0.39,-1.23
0.828,-0.404,0.263,-11.000,-39.000,27.000,61.157,-67.993,118.042,0.07,-0.38,-1.21
0.862,-0.363,0.268,-11.000,-39.000,27.000,27.710,-45.593,120.483,0.07,-0.37,-1.19
0.843,-0.453,0.219,-11.000,-39.000,27.000,23.804,-26.184,121.887,0.07,-0.37,-1.17
0.825,-0.391,0.211,-11.000,-39.000,27.000,41.077,-19.592,140.991,0.07,-0.36,-1.15
0.827,-0.296,0.223,-11.000,-39.000,27.000,61.096,-17.395,156.555,0.08,-0.35,-1.12
0.859,-0.119,0.183,-5.000,-44.000,27.000,99.060,-20.996,151.001,0.08,-0.33,-1.10
0.857,-0.101,0.197,-5.000,-44.000,27.000,127.258,-22.461,145.996,0.08,-0.31,-1.07
0.894,0.004,0.146,-5.000,-44.000,27.000,157.654,-28.809,147.095,0.08,-0.28,-1.05
0.921,0.095,0.192,-5.000,-44.000,27.000,167.847,-34.912,144.348,0.08,-0.25,-1.02
0.917,0.048,0.152,-5.000,-44.000,27.000,186.157,-41.992,133.484,0.08,-0.21,-1.00
0.902,0.064,0.124,-3.000,-46.000,25.000,215.149,-55.237,129.089,0.07,-0.17,-0.97
0.929,0.261,0.268,-3.000,-46.000,25.000,208.008,-73.425,131.165,0.06,-0.14,-0.95
0.953,0.307,0.368,-3.000,-46.000,25.000,181.580,-77.087,113.831,0.05,-0.11,-0.93
0.937,0.209,0.398,-3.000,-46.000,25.000,180.237,-77.087,83.557,0.03,-0.07,-0.92
0.867,0.022,0.434,-3.000,-46.000,25.000,157.654,-74.829,78.613,0.02,-0.05,-0.90
0.834,0.053,0.389,-2.000,-42.000,27.000,112.366,-72.266,85.693,0.01,-0.03,-0.89
0.801,0.145,0.372,-2.000,-42.000,27.000,86.792,-73.669,88.867,-0.01,-0.01,-0.87
0.878,0.365,0.459,-2.000,-42.000,27.000,52.490,-82.703,95.459,-0.02,-0.00,-0.86
0.888,0.325,0.643,-2.000,-42.000,27.000,58.228,-93.201,77.759,-0.04,0.01,-0.84
0.845,0.208,0.702,-2.000,-42.000,27.000,48.584,-74.890,58.289,-0.05,0.01,-0.83
0.791,0.102,0.633,2.000,-41.000,32.000,27.344,-46.509,53.711,-0.06,0.02,-0.82
0.725,0.102,0.467,2.000,-41.000,32.000,21.118,-26.123,67.383,-0.07,0.02,-0.81
0.720,0.215,0.415,2.000,-41.000,32.000,24.292,-24.292,81.482,-0.08,0.03,-0.80
0.829,0.446,0.516,2.000,-41.000,32.000,28.015,-39.063,73.120,-0.08,0.03,-0.79
0.886,0.312,0.775,2.000,-41.000,32.000,23.315,-34.180,65.063,-0.09,0.03,-0.78
0.810,0.246,0.826,2.000,-41.000,32.000,26.428,-19.592,68.359,-0.10,0.04,-0.76
0.781,0.354,0.620,7.000,-44.000,33.000,29.907,10.681,64.575,-0.10,0.04,-0.75
0.755,0.273,0.516,7.000,-44.000,33.000,29.724,16.724,50.171,-0.10,0.05,-0.75
0.756,0.305,0.507,7.000,-44.000,33.000,36.011,11.963,58.044,-0.10,0.05,-0.74
0.774,0.345,0.545,7.000,-44.000,33.000,79.529,3.296,73.425,-0.10,0.07,-0.72
0.872,0.476,0.639,7.000,-44.000,33.000,81.909,0.366,68.909,-0.10,0.08,-0.71
0.780,0.410,0.667,10.000,-43.000,33.000,61.096,8.911,46.326,-0.10,0.09,-0.70
0.740,0.316,0.651,10.000,-43.000,33.000,52.795,14.832,41.443,-0.10,0.10,-0.70
0.773,0.301,0.549,10.000,-43.000,33.000,33.447,14.221,38.696,-0.10,0.10,-0.69
0.740,0.214,0.555,10.000,-43.000,33.000,16.113,2.441,38.208,-0.11,0.11,-0.68
0.784,0.271,0.655,10.000,-43.000,33.000,33.203,-14.587,49.866,-0.11,0.11,-0.68
0.817,0.348,0.770,14.000,-46.000,36.000,29.358,-16.846,52.429,-0.12,0.12,-0.67
0.785,0.315,0.769,14.000,-46.000,36.000,28.809,5.798,49.255,-0.12,0.12,-0.66
0.736,0.295,0.713,14.000,-46.000,36.000,18.127,22.217,54.626,-0.12,0.12,-0.65
0.735,0.425,0.616,14.000,-46.000,36.000,-14.893,27.100,51.208,-0.12,0.12,-0.64
0.723,0.499,0.586,14.000,-46.000,36.000,-19.897,27.649,38.208,-0.11,0.12,-0.63
0.732,0.564,0.580,14.000,-46.000,36.000,-18.250,28.320,28.931,-0.11,0.12,-0.63
0.753,0.528,0.559,15.000,-48.000,38.000,-9.155,25.574,10.925,-0.11,0.11,-0.63
0.747,0.482,0.553,15.000,-48.000,38.000,-0.122,17.090,4.578,-0.11,0.12,-0.63
0.713,0.466,0.536,15.000,-48.000,38.000,-16.418,8.545,1.404,-0.11,0.11,-0.63
0.708,0.460,0.522,15.000,-48.000,38.000,-22.217,5.127,-4.272,-0.11,0.11,-0.63
0.721,0.428,0.496,15.000,-48.000,38.000,-26.672,-0.671,-12.024,-0.11,0.11,-0.63
0.775,0.437,0.520,14.000,-46.000,36.000,-54.260,-8.545,-20.020,-0.11,0.10,-0.63
0.711,0.426,0.560,14.000,-46.000,36.000,-56.702,-4.272,-26.794,-0.11,0.09,-0.64
0.676,0.309,0.516,14.000,-46.000,36.000,-33.081,-0.122,-22.400,-0.12,0.09,-0.64
0.744,0.401,0.484,14.000,-46.000,36.000,-2.686,5.371,-10.681,-0.12,0.09,-0.64
0.730,0.374,0.448,14.000,-46.000,36.000,-6.165,4.272,-10.254,-0.12,0.09,-0.64
0.732,0.427,0.492,12.000,-49.000,35.000,-1.160,-0.061,-5.737,-0.12,0.09,-0.64
0.743,0.417,0.517,12.000,-49.000,35.000,11.414,3.601,-2.686,-0.12,0.09,-0.65
0.743,0.407,0.500,12.000,-49.000,35.000,13.000,4.883,1.526,-0.12,0.09,-0.64
0.754,0.399,0.516,12.000,-49.000,35.000,-0.305,0.977,1.282,-0.12,0.10,-0.64
0.759,0.381,0.565,12.000,-49.000,35.000,-10.254,3.296,-0.244,-0.12,0.09,-0.64
0.751,0.326,0.552,13.000,-46.000,38.000,-10.193,5.127,0.427,-0.12,0.09,-0.64
0.740,0.304,0.530,13.000,-46.000,38.000,-8.606,6.470,5.188,-0.13,0.09,-0.64
0.729,0.315,0.537,13.000,-46.000,38.000,-10.010,4.211,10.498,-0.13,0.09,-0.64
0.723,0.388,0.598,13.000,-46.000,38.000,-14.282,5.249,14.893,-0.13,0.09,-0.64
0.671,0.331,0.494,13.000,-46.000,38.000,15.259,25.269,25.635,-0.13,0.09,-0.64
0.679,0.314,0.446,13.000,-46.000,38.000,29.663,32.776,37.048,-0.12,0.10,-0.63
0.755,0.281,0.549,12.000,-46.000,34.000,21.667,29.968,43.884,-0.12,0.10,-0.62
0.748,0.251,0.780,12.000,-46.000,34.000,25.146,50.415,63.477,-0.11,0.10,-0.61
0.854,0.322,0.693,12.000,-46.000,34.000,36.621,68.848,75.623,-0.11,0.11,-0.60
0.833,0.417,0.544,12.000,-46.000,34.000,37.903,78.491,99.182,-0.10,0.11,-0.58
0.657,0.580,0.487,12.000,-46.000,34.000,15.320,67.383,107.727,-0.09,0.12,-0.56
0.628,0.464,0.458,14.000,-49.000,35.000,36.499,63.416,101.746,-0.08,0.12,-0.54
0.641,0.407,0.530,14.000,-49.000,35.000,37.659,61.646,114.380,-0.08,0.13,-0.52
0.745,0.500,0.664,14.000,-49.000,35.000,27.710,73.792,133.850,-0.07,0.13,-0.50
0.741,0.688,0.545,14.000,-49.000,35.000,51.575,87.280,129.883,-0.06,0.14,-0.47
0.542,0.724,0.361,14.000,-49.000,35.000,51.636,87.891,113.831,-0.05,0.15,-0.45
0.487,0.614,0.257,18.000,-51.000,20.000,37.476,82.275,106.079,-0.04,0.16,-0.43
0.633,0.602,0.267,18.000,-51.000,20.000,0.916,62.439,97.412,-0.03,0.16,-0.41
0.628,0.679,0.348,18.000,-51.000,20.000,-4.578,46.814,94.971,-0.03,0.16,-0.40
0.604,0.759,0.459,18.000,-51.000,20.000,-3.052,43.213,99.609,-0.02,0.16,-0.38
0.596,0.764,0.444,18.000,-51.000,20.000,2.258,54.810,97.473,-0.02,0.16,-0.36
0.541,0.752,0.269,18.000,-51.000,20.000,-8.423,49.927,92.773,-0.01,0.16,-0.35
0.538,0.799,0.128,20.000,-48.000,17.000,-14.587,25.757,86.304,-0.01,0.16,-0.33
0.527,0.852,0.294,20.000,-48.000,17.000,-15.991,18.311,74.097,-0.01,0.16,-0.32
0.561,0.809,0.468,20.000,-48.000,17.000,-19.531,22.583,46.570,-0.01,0.15,-0.31
0.644,0.697,0.531,20.000,-48.000,17.000,-35.339,26.855,30.090,-0.01,0.15,-0.30
0.526,0.541,0.822,20.000,-48.000,17.000,-25.940,31.067,27.710,-0.01,0.15,-0.30
0.476,0.590,0.535,23.000,-46.000,9.000,49.622,124.817,75.317,0.01,0.16,-0.28
0.452,0.726,0.231,23.000,-46.000,9.000,65.430,160.950,102.356,0.03,0.17,-0.26
0.337,0.729,0.142,23.000,-46.000,9.000,48.340,121.887,99.915,0.05,0.18,-0.24
0.359,0.683,0.406,23.000,-46.000,9.000,33.875,122.192,111.938,0.07,0.19,-0.22
0.303,0.696,0.320,23.000,-46.000,9.000,39.917,132.202,120.300,0.08,0.20,-0.19
0.194,0.891,0.125,29.000,-39.000,2.000,42.419,135.193,131.531,0.10,0.21,-0.17
0.197,0.998,0.083,29.000,-39.000,2.000,35.034,120.728,123.047,0.12,0.22,-0.14
0.226,0.907,0.157,29.000,-39.000,2.000,24.658,101.624,110.413,0.13,0.23,-0.12
0.241,0.915,0.242,29.000,-39.000,2.000,22.949,93.933,110.779,0.14,0.24,-0.10
0.299,0.959,0.250,29.000,-39.000,2.000,43.518,97.107,108.337,0.15,0.25,-0.08
0.187,0.927,0.180,29.000,-39.000,2.000,12.329,91.858,107.666,0.16,0.26,-0.05
0.171,1.121,0.084,37.000,-28.000,-8.000,-2.197,86.182,104.370,0.17,0.26,-0.03
0.172,1.200,0.116,37.000,-28.000,-8.000,-13.245,72.510,85.937,0.17,0.27,-0.02
0.212,0.939,0.290,37.000,-28.000,-8.000,24.109,65.735,64.880,0.18,0.27,-0.00
0.171,0.747,0.538,37.000,-28.000,-8.000,57.312,74.341,72.571,0.19,0.29,0.01
0.110,0.902,0.499,37.000,-28.000,-8.000,44.006,102.356,91.431,0.20,0.30,0.03
0.065,1.246,0.208,41.000,-28.000,-5.000,17.944,106.750,72.083,0.21,0.31,0.05
0.085,1.215,0.125,41.000,-28.000,-5.000,20.264,94.849,41.565,0.23,0.32,0.06
0.104,1.023,0.372,41.000,-28.000,-5.000,39.917,93.262,33.936,0.24,0.33,0.08
0.101,0.964,0.600,41.000,-28.000,-5.000,72.632,107.361,30.884,0.25,0.34,0.09
0.081,0.940,0.468,41.000,-28.000,-5.000,61.829,137.573,35.767,0.27,0.36,0.10
0.049,1.046,0.451,41.000,-28.000,-5.000,65.186,153.442,37.170,0.29,0.38,0.12
0.020,1.097,0.415,42.000,-22.000,-7.000,60.791,164.429,28.381,0.32,0.39,0.13
0.061,1.086,0.250,42.000,-22.000,-7.000,57.739,159.851,15.686,0.34,0.41,0.15
0.059,1.017,0.323,42.000,-22.000,-7.000,51.453,152.710,12.085,0.36,0.43,0.16
0.051,1.031,0.422,42.000,-22.000,-7.000,57.312,155.212,9.338,0.38,0.44,0.18
0.005,0.918,0.421,42.000,-22.000,-7.000,44.922,165.344,4.456,0.41,0.46,0.19
-0.011,1.079,0.245,45.000,-24.000,-4.000,37.048,173.340,10.437,0.43,0.47,0.21
0.030,1.190,0.174,45.000,-24.000,-4.000,35.645,162.231,0.793,0.46,0.49,0.22
0.009,1.083,0.194,45.000,-24.000,-4.000,28.687,148.804,-15.625,0.48,0.50,0.23
-0.016,0.954,0.106,45.000,-24.000,-4.000,22.339,136.292,-14.832,0.50,0.51,0.24
0.094,0.958,0.174,45.000,-24.000,-4.000,22.400,112.610,-15.198,0.52,0.52,0.25
0.127,1.125,0.306,45.000,-23.000,-9.000,29.297,111.023,-16.174,0.53,0.53,0.26
0.083,1.289,0.140,45.000,-23.000,-9.000,31.433,116.211,-33.447,0.55,0.54,0.27
0.126,1.257,0.088,45.000,-23.000,-9.000,-6.592,96.985,-68.115,0.57,0.54,0.27
0.248,1.015,0.264,45.000,-23.000,-9.000,-60.120,73.181,-101.562,0.59,0.52,0.26
0.321,0.790,0.282,45.000,-23.000,-9.000,-51.514,78.125,-105.041,0.61,0.51,0.25
0.339,0.842,0.272,45.000,-23.000,-9.000,-41.565,86.670,-95.032,0.63,0.50,0.24
0.352,1.003,0.235,42.000,-26.000,-14.000,-50.171,89.783,-103.333,0.65,0.49,0.23
0.365,1.336,0.220,42.000,-26.000,-14.000,-78.491,88.684,-141.296,0.67,0.47,0.22
0.377,1.101,0.132,42.000,-26.000,-14.000,-100.403,91.858,-168.152,0.70,0.44,0.19
0.463,0.382,0.109,42.000,-26.000,-14.000,-127.625,93.323,-180.908,0.72,0.40,0.17
0.516,0.363,-0.022,42.000,-26.000,-14.000,-114.807,94.604,-139.954,0.74,0.36,0.14
0.561,0.863,-0.028,34.000,-31.000,-18.000,-86.426,83.984,-120.056,0.76,0.34,0.13
0.569,1.121,-0.078,34.000,-31.000,-18.000,-105.835,80.261,-155.212,0.78,0.30,0.10
0.552,1.089,-0.208,34.000,-31.000,-18.000,-173.828,72.693,-198.730,0.80,0.25,0.06
0.526,0.669,-0.369,34.000,-31.000,-18.000,-198.120,41.077,-218.140,0.82,0.18,0.01
0.617,-0.090,-0.111,34.000,-31.000,-18.000,-152.954,32.654,-186.829,0.83,0.12,-0.03
0.724,-0.095,-0.140,17.000,-35.000,-33.000,-137.634,38.635,-158.508,0.83,0.07,-0.07
0.769,0.520,-0.375,17.000,-35.000,-33.000,-127.747,42.542,-124.939,0.84,0.03,-0.10
0.714,0.984,-0.764,17.000,-35.000,-33.000,-165.222,29.053,-149.048,0.85,-0.03,-0.14
0.624,0.623,-0.797,17.000,-35.000,-33.000,-257.202,-25.574,-203.247,0.84,-0.10,-0.19
0.658,-0.418,-0.182,17.000,-35.000,-33.000,-317.322,-82.336,-220.581,0.82,-0.20,-0.24
0.797,-0.708,0.149,-3.000,-35.000,-32.000,-304.443,-79.895,-167.053,0.80,-0.27,-0.27
0.855,-0.516,0.131,-3.000,-35.000,-32.000,-279.053,-42.847,-100.342,0.79,-0.34,-0.29
0.872,0.097,-0.434,-3.000,-35.000,-32.000,-277.344,-39.978,-92.590,0.77,-0.40,-0.31
0.851,0.276,-0.723,-3.000,-35.000,-32.000,-348.022,-103.027,-125.793,0.75,-0.47,-0.33
0.793,-0.086,-0.437,-3.000,-35.000,-32.000,-488.342,-154.175,-135.559,0.71,-0.55,-0.34
0.786,-0.470,-0.007,-3.000,-35.000,-32.000,-480.774,-182.007,-107.117,0.68,-0.63,-0.34
0.826,-0.573,0.415,-20.000,-36.000,-3.000,-325.012,-173.767,-60.364,0.65,-0.68,-0.32
0.887,-0.396,0.471,-20.000,-36.000,-3.000,-252.014,-146.912,-42.480,0.62,-0.72,-0.31
0.904,-0.258,0.179,-20.000,-36.000,-3.000,-173.096,-94.543,-29.541,0.61,-0.74,-0.30
0.885,-0.162,-0.030,-20.000,-36.000,-3.000,-172.302,-90.759,-31.067,0.59,-0.77,-0.29
0.848,-0.291,0.163,-20.000,-36.000,-3.000,-216.370,-118.469,-42.969,0.57,-0.80,-0.28
0.854,-0.552,0.560,-25.000,-36.000,6.000,-229.736,-134.155,-41.687,0.55,-0.83,-0.27
0.886,-0.483,0.737,-25.000,-36.000,6.000,-131.958,-104.919,-12.512,0.53,-0.84,-0.26
0.881,-0.358,0.633,-25.000,-36.000,6.000,-69.275,-47.363,3.296,0.53,-0.85,-0.25
0.847,-0.320,0.309,-25.000,-36.000,6.000,-77.271,-33.447,-1.526,0.52,-0.86,-0.24
0.826,-0.318,0.157,-25.000,-36.000,6.000,-102.661,-60.242,6.409,0.51,-0.87,-0.23
0.829,-0.167,0.210,-21.000,-36.000,22.000,-112.305,-82.153,3.235,0.50,-0.89,-0.22
0.801,-0.279,0.365,-21.000,-36.000,22.000,-117.187,-88.501,-3.784,0.49,-0.90,-0.21
0.815,-0.288,0.402,-21.000,-36.000,22.000,-111.511,-88.379,1.465,0.48,-0.91,-0.20
0.801,-0.196,0.396,-21.000,-36.000,22.000,-90.820,-92.468,7.019,0.47,-0.92,-0.18
0.770,-0.140,0.442,-21.000,-36.000,22.000,-84.595,-102.112,5.859,0.46,-0.93,-0.16
0.728,-0.167,0.439,-17.000,-31.000,27.000,-93.506,-108.826,2.502,0.45,-0.93,-0.15
0.684,-0.178,0.385,-17.000,-31.000,27.000,-101.929,-113.892,7.751,0.44,-0.94,-0.13
0.642,-0.075,0.413,-17.000,-31.000,27.000,-101.257,-128.479,13.062,0.43,-0.95,-0.11
0.618,-0.088,0.509,-17.000,-31.000,27.000,-89.294,-149.780,8.362,0.41,-0.96,-0.08
0.579,-0.120,0.666,-17.000,-31.000,27.000,-68.787,-157.654,10.925,0.40,-0.96,-0.06
0.543,-0.169,0.843,-9.000,-26.000,29.000,-64.392,-156.372,21.851,0.38,-0.96,-0.03
0.494,-0.094,0.914,-9.000,-26.000,29.000,-49.988,-144.653,34.302,0.37,-0.96,-0.01
0.429,0.018,0.845,-9.000,-26.000,29.000,-43.030,-143.005,34.607,0.36,-0.95,0.02
0.413,0.177,0.860,-9.000,-26.000,29.000,-33.569,-146.912,25.574,0.35,-0.95,0.04
0.374,0.081,1.000,-9.000,-26.000,29.000,-28.748,-149.048,2.197,0.34,-0.95,0.06
0.337,-0.087,1.296,-9.000,-26.000,29.000,-47.119,-152.039,1.160,0.32,-0.94,0.09
0.293,0.059,1.355,-6.000,-17.000,38.000,-35.278,-120.300,14.526,0.31,-0.94,0.10
0.276,0.163,1.157,-6.000,-17.000,38.000,-33.142,-79.346,5.554,0.30,-0.94,0.12
0.260,0.195,0.856,-6.000,-17.000,38.000,-44.678,-84.595,-15.625,0.29,-0.95,0.13
0.245,0.082,0.880,-6.000,-17.000,38.000,-43.640,-96.375,-26.123,0.28,-0.95,0.14
0.213,-0.087,0.999,-6.000,-17.000,38.000,-44.006,-98.999,-25.940,0.26,-0.95,0.15
0.185,-0.059,1.060,-2.000,-10.000,43.000,-38.269,-92.590,-11.902,0.25,-0.96,0.16
0.158,0.017,1.022,-2.000,-10.000,43.000,-31.128,-83.374,-3.235,0.24,-0.96,0.17
0.121,0.082,0.971,-2.000,-10.000,43.000,-32.471,-79.834,-2.563,0.24,-0.96,0.19
0.111,0.217,0.845,-2.000,-10.000,43.000,-30.396,-78.552,-6.409,0.23,-0.96,0.20
0.080,0.175,0.901,-2.000,-10.000,43.000,-33.447,-91.003,-20.691,0.21,-0.96,0.21
0.063,0.103,0.956,2.000,-3.000,38.000,-40.344,-97.412,-26.428,0.20,-0.97,0.22
0.028,-0.006,1.015,2.000,-3.000,38.000,-30.823,-94.727,-13.428,0.19,-0.97,0.23
-0.017,0.071,0.958,2.000,-3.000,38.000,-5.920,-102.356,2.502,0.18,-0.96,0.25
-0.068,0.149,0.885,2.000,-3.000,38.000,5.615,-112.427,6.165,0.17,-0.96,0.26
-0.087,0.271,0.996,2.000,-3.000,38.000,13.428,-134.521,4.761,0.16,-0.95,0.28
-0.079,0.213,1.151,2.000,-3.000,38.000,5.188,-125.183,-17.700,0.14,-0.95,0.30
-0.057,0.088,1.003,2.000,2.000,33.000,5.859,-88.318,-28.625,0.13,-0.94,0.31
-0.102,0.029,0.757,2.000,2.000,33.000,-6.714,-78.979,-25.085,0.12,-0.94,0.32
-0.190,-0.039,0.774,2.000,2.000,33.000,-15.320,-105.835,-14.221,0.11,-0.94,0.33
-0.213,-0.005,1.027,2.000,2.000,33.000,10.193,-109.253,9.338,0.10,-0.94,0.35
-0.248,0.161,1.034,2.000,2.000,33.000,10.437,-91.736,11.353,0.09,-0.93,0.36
-0.250,0.168,0.997,-5.000,6.000,23.000,11.841,-80.139,6.897,0.08,-0.93,0.37
-0.256,0.262,0.768,-5.000,6.000,23.000,12.451,-82.153,5.371,0.08,-0.92,0.38
-0.414,0.284,0.793,-5.000,6.000,23.000,-11.658,-109.314,-11.841,0.07,-0.92,0.40
-0.488,0.199,1.010,-5.000,6.000,23.000,-24.780,-131.042,-28.137,0.05,-0.93,0.41
-0.486,0.224,1.119,-5.000,6.000,23.000,-12.329,-120.239,-28.503,0.03,-0.93,0.42
-0.492,0.307,1.139,-11.000,14.000,21.000,-0.488,-101.135,-32.959,0.02,-0.92,0.43
-0.522,0.406,1.311,-11.000,14.000,21.000,0.671,-78.552,-56.763,0.00,-0.92,0.44
-0.527,0.291,1.416,-11.000,14.000,21.000,2.014,-42.542,-78.308,-0.01,-0.92,0.44
-0.610,0.304,1.355,-11.000,14.000,21.000,-0.671,-5.432,-83.923,-0.02,-0.92,0.43
-0.605,0.424,1.277,-11.000,14.000,21.000,-8.850,9.705,-92.896,-0.03,-0.92,0.42
-0.529,0.381,1.192,-6.000,17.000,29.000,-20.325,38.879,-115.967,-0.04,-0.92,0.40
-0.523,0.522,1.120,-6.000,17.000,29.000,-25.635,60.547,-132.019,-0.05,-0.92,0.38
-0.508,0.503,1.057,-6.000,17.000,29.000,-27.039,74.463,-160.828,-0.07,-0.93,0.35
-0.499,0.395,1.047,-6.000,17.000,29.000,-5.493,83.862,-182.495,-0.08,-0.92,0.32
-0.498,0.320,1.033,-6.000,17.000,29.000,7.690,96.130,-192.078,-0.10,-0.92,0.29
-0.477,0.155,0.962,-6.000,17.000,29.000,21.729,104.736,-183.350,-0.11,-0.91,0.26
-0.443,0.163,0.865,3.000,14.000,30.000,28.503,100.586,-163.086,-0.12,-0.90,0.23
-0.364,0.182,0.857,3.000,14.000,30.000,15.503,94.055,-148.804,-0.13,-0.89,0.20
-0.244,0.162,0.751,3.000,14.000,30.000,12.024,90.515,-139.648,-0.14,-0.89,0.17
-0.128,0.319,0.748,3.000,14.000,30.000,17.822,70.374,-119.202,-0.15,-0.88,0.15
-0.065,0.376,0.930,3.000,14.000,30.000,22.644,52.307,-115.845,-0.16,-0.87,0.13
-0.051,0.344,0.980,9.000,12.000,40.000,27.527,56.152,-120.666,-0.16,-0.86,0.11
-0.040,0.280,0.948,9.000,12.000,40.000,30.823,62.561,-123.962,-0.17,-0.85,0.09
-0.025,0.242,0.924,9.000,12.000,40.000,33.386,62.927,-121.643,-0.18,-0.84,0.07
0.046,0.249,0.963,9.000,12.000,40.000,41.443,59.143,-114.746,-0.19,-0.83,0.04
0.046,0.286,1.059,9.000,12.000,40.000,48.218,65.918,-115.051,-0.20,-0.81,0.02
0.072,0.220,1.063,9.000,7.000,36.000,50.903,69.275,-116.028,-0.20,-0.80,0.00
0.099,0.139,1.048,9.000,7.000,36.000,63.660,78.735,-109.680,-0.21,-0.78,-0.02
0.118,0.057,0.941,9.000,7.000,36.000,74.890,88.440,-97.778,-0.21,-0.76,-0.05
0.146,0.066,1.041,9.000,7.000,36.000,74.890,85.449,-83.862,-0.21,-0.75,-0.07
0.236,0.139,1.136,9.000,7.000,36.000,74.707,94.421,-80.750,-0.20,-0.73,-0.09
0.256,0.169,1.096,9.000,7.000,36.000,75.745,118.835,-91.431,-0.20,-0.71,-0.11
0.275,0.014,1.001,7.000,0.000,46.000,46.814,132.202,-99.609,-0.19,-0.69,-0.14
0.263,-0.271,0.987,7.000,0.000,46.000,38.147,138.855,-95.520,-0.18,-0.68,-0.17
0.301,-0.323,0.988,7.000,0.000,46.000,56.946,148.315,-63.171,-0.17,-0.67,-0.19
0.356,-0.108,0.952,7.000,0.000,46.000,86.853,159.912,-22.888,-0.15,-0.65,-0.21
0.443,0.013,0.660,7.000,0.000,46.000,110.413,171.875,-9.094,-0.13,-0.62,-0.23
0.478,0.044,0.658,1.000,-13.000,40.000,102.417,149.780,-15.076,-0.11,-0.60,-0.25
0.493,-0.033,0.824,1.000,-13.000,40.000,86.487,127.686,-28.931,-0.10,-0.59,-0.27
0.522,-0.432,1.039,1.000,-13.000,40.000,98.267,152.039,-16.235,-0.08,-0.57,-0.28
0.572,-0.551,0.703,1.000,-13.000,40.000,140.381,178.955,38.879,-0.06,-0.54,-0.29
0.608,-0.148,0.271,1.000,-13.000,40.000,146.057,157.715,72.266,-0.03,-0.52,-0.30
0.667,0.174,0.231,-4.000,-23.000,37.000,126.709,128.235,64.392,-0.01,-0.50,-0.30
0.734,-0.090,0.423,-4.000,-23.000,37.000,73.975,79.102,22.034,0.01,-0.48,-0.30
0.726,-0.321,0.652,-4.000,-23.000,37.000,54.260,57.251,10.742,0.01,-0.47,-0.30
0.794,-0.381,0.714,-4.000,-23.000,37.000,59.998,70.435,25.879,0.02,-0.46,-0.30
0.779,-0.291,0.687,-4.000,-23.000,37.000,100.403,94.543,29.541,0.04,-0.45,-0.31
0.760,-0.104,0.551,-11.000,-32.000,34.000,109.436,115.173,59.326,0.06,-0.43,-0.31
0.822,-0.148,0.269,-11.000,-32.000,34.000,112.915,92.285,61.340,0.07,-0.41,-0.30
0.880,-0.041,0.423,-11.000,-32.000,34.000,105.103,65.552,44.617,0.09,-0.39,-0.30
0.891,-0.326,0.721,-11.000,-32.000,34.000,100.647,71.289,43.152,0.10,-0.37,-0.30
0.824,-0.368,0.719,-11.000,-32.000,34.000,128.662,119.690,71.960,0.12,-0.35,-0.29
0.832,-0.135,0.156,-11.000,-32.000,34.000,172.485,168.457,98.694,0.15,-0.32,-0.29
0.865,-0.224,0.081,-12.000,-39.000,23.000,195.068,130.371,94.543,0.17,-0.29,-0.28
0.863,-0.337,0.297,-12.000,-39.000,23.000,210.327,96.252,106.323,0.19,-0.25,-0.27
0.856,-0.286,0.302,-12.000,-39.000,23.000,193.909,114.319,141.418,0.21,-0.22,-0.25
0.864,-0.190,0.287,-12.000,-39.000,23.000,168.091,141.541,175.049,0.24,-0.18,-0.22
0.843,0.203,0.057,-12.000,-39.000,23.000,140.442,152.832,176.086,0.27,-0.15,-0.20
0.895,0.337,-0.125,-7.000,-48.000,6.000,125.977,140.198,152.466,0.29,-0.12,-0.17
0.922,0.052,-0.086,-7.000,-48.000,6.000,113.586,110.474,108.765,0.31,-0.10,-0.16
0.879,0.038,-0.192,-7.000,-48.000,6.000,110.291,97.778,113.403,0.33,-0.08,-0.14
0.878,0.268,-0.192,-7.000,-48.000,6.000,108.643,74.524,127.258,0.34,-0.05,-0.12
0.944,0.442,-0.019,-7.000,-48.000,6.000,95.276,59.204,117.126,0.35,-0.03,-0.10
0.954,0.412,-0.003,2.000,-51.000,3.000,85.876,68.726,90.698,0.36,-0.00,-0.08
0.916,0.305,-0.080,2.000,-51.000,3.000,75.317,76.111,83.740,0.37,0.01,-0.06
0.916,0.374,-0.173,2.000,-51.000,3.000,68.909,74.219,81.848,0.38,0.03,-0.05
0.902,0.349,-0.214,2.000,-51.000,3.000,74.219,70.313,73.792,0.39,0.05,-0.03
0.884,0.255,-0.175,2.000,-51.000,3.000,77.332,62.561,67.078,0.40,0.07,-0.02
0.848,0.213,-0.160,2.000,-51.000,3.000,66.345,62.134,77.698,0.41,0.09,-0.01
0.832,0.307,-0.172,6.000,-52.000,0.000,57.861,62.500,96.680,0.41,0.10,0.01
0.832,0.340,-0.155,6.000,-52.000,0.000,52.002,63.049,107.483,0.42,0.12,0.03
0.826,0.457,-0.172,6.000,-52.000,0.000,54.260,65.918,107.239,0.43,0.14,0.06
0.803,0.479,-0.127,6.000,-52.000,0.000,58.594,70.129,99.182,0.44,0.16,0.08
0.758,0.499,-0.200,6.000,-52.000,0.000,65.613,74.768,96.985,0.44,0.18,0.10
0.711,0.547,-0.293,13.000,-52.000,-5.000,67.505,74.219,97.351,0.45,0.20,0.12
0.704,0.630,-0.273,13.000,-52.000,-5.000,59.143,63.965,97.168,0.46,0.22,0.14
0.695,0.542,-0.219,13.000,-52.000,-5.000,50.354,58.594,92.957,0.46,0.24,0.16
0.678,0.555,-0.205,13.000,-52.000,-5.000,41.016,61.523,103.394,0.47,0.26,0.18
0.631,0.693,-0.243,13.000,-52.000,-5.000,50.232,64.148,102.905,0.47,0.28,0.20
0.601,0.709,-0.251,24.000,-49.000,-7.000,43.091,62.622,98.328,0.48,0.30,0.23
0.580,0.702,-0.246,24.000,-49.000,-7.000,38.879,63.110,97.839,0.48,0.32,0.25
0.542,0.741,-0.307,24.000,-49.000,-7.000,40.894,63.843,99.609,0.48,0.34,0.27
0.508,0.764,-0.301,24.000,-49.000,-7.000,42.847,57.007,98.267,0.49,0.36,0.29
0.484,0.795,-0.227,24.000,-49.000,-7.000,41.260,52.124,97.412,0.49,0.37,0.31
0.475,0.775,-0.196,24.000,-49.000,-7.000,46.753,56.885,95.154,0.49,0.39,0.34
0.448,0.743,-0.191,25.000,-45.000,-9.000,50.232,64.758,99.915,0.49,0.41,0.36
0.398,0.746,-0.182,25.000,-45.000,-9.000,47.852,69.031,111.755,0.49,0.44,0.39
0.335,0.900,-0.257,25.000,-45.000,-9.000,58.350,71.106,127.747,0.50,0.46,0.41
0.279,0.916,-0.339,25.000,-45.000,-9.000,60.181,67.200,134.399,0.49,0.49,0.44
0.249,0.886,-0.244,25.000,-45.000,-9.000,46.204,54.565,126.343,0.49,0.51,0.47
0.210,0.941,-0.204,29.000,-40.000,-12.000,50.964,52.979,111.511,0.49,0.53,0.50
0.181,0.930,-0.101,29.000,-40.000,-12.000,48.340,51.636,112.549,0.49,0.55,0.52
0.169,0.968,-0.070,29.000,-40.000,-12.000,49.316,61.890,116.882,0.48,0.57,0.55
0.116,1.115,-0.177,29.000,-40.000,-12.000,49.744,67.993,102.234,0.48,0.59,0.57
0.072,1.092,-0.188,29.000,-40.000,-12.000,40.649,64.270,82.520,0.48,0.61,0.59
0.066,0.972,-0.026,25.000,-30.000,-15.000,35.400,66.467,78.674,0.48,0.63,0.61
0.044,1.035,0.011,25.000,-30.000,-15.000,31.555,81.543,79.651,0.49,0.65,0.63
-0.026,1.121,-0.134,25.000,-30.000,-15.000,33.630,95.276,72.998,0.49,0.66,0.66
-0.047,1.039,-0.138,25.000,-30.000,-15.000,27.466,91.980,62.012,0.50,0.68,0.68
-0.047,1.020,-0.072,25.000,-30.000,-15.000,21.240,93.079,59.021,0.50,0.70,0.70
-0.052,1.017,-0.030,25.000,-30.000,-15.000,15.869,99.609,54.260,0.51,0.71,0.72
-0.056,0.893,0.125,34.000,-21.000,-26.000,15.747,117.859,62.683,0.52,0.73,0.74
-0.134,1.071,-0.151,34.000,-21.000,-26.000,23.804,126.892,65.125,0.52,0.75,0.77
-0.167,0.979,-0.260,34.000,-21.000,-26.000,17.334,116.516,54.810,0.53,0.76,0.80
-0.142,0.834,0.072,34.000,-21.000,-26.000,-20.996,99.792,61.707,0.54,0.77,0.82
-0.226,1.045,0.064,34.000,-21.000,-26.000,-15.625,122.681,78.979,0.54,0.79,0.85
-0.317,1.275,-0.324,42.000,-11.000,-24.000,31.189,141.174,62.500,0.55,0.81,0.88
-0.316,1.195,-0.469,42.000,-11.000,-24.000,28.198,114.014,26.489,0.56,0.82,0.90
-0.257,0.889,-0.227,42.000,-11.000,-24.000,-6.348,78.857,27.283,0.56,0.83,0.91
-0.231,0.759,-0.000,42.000,-11.000,-24.000,2.563,82.458,43.457,0.57,0.85,0.93
-0.242,0.774,0.056,42.000,-11.000,-24.000,10.254,90.027,53.101,0.57,0.86,0.95
-0.306,1.073,-0.137,43.000,-5.000,-20.000,12.573,104.553,70.557,0.57,0.88,0.98
-0.339,1.212,-0.162,43.000,-5.000,-20.000,12.756,93.384,57.190,0.58,0.89,1.00
-0.307,1.012,0.010,43.000,-5.000,-20.000,24.353,75.317,25.330,0.58,0.91,1.02
-0.287,0.889,0.188,43.000,-5.000,-20.000,33.691,76.233,19.958,0.58,0.92,1.04
-0.320,0.937,0.147,43.000,-5.000,-20.000,33.630,95.215,30.701,0.59,0.94,1.06
-0.402,1.045,-0.038,43.000,-5.000,-20.000,19.592,91.064,30.823,0.59,0.96,1.07
-0.411,1.035,-0.024,44.000,0.000,-16.000,13.794,82.397,27.954,0.60,0.97,1.09
-0.403,0.979,0.091,44.000,0.000,-16.000,11.536,67.688,21.118,0.60,0.98,1.11
-0.430,1.071,0.228,44.000,0.000,-16.000,18.188,66.956,14.709,0.60,1.00,1.12
-0.463,0.971,0.126,44.000,0.000,-16.000,27.039,79.773,0.671,0.61,1.01,1.14
-0.461,0.951,0.117,44.000,0.000,-16.000,7.141,71.960,-0.061,0.62,1.02,1.15
-0.445,0.963,0.168,44.000,0.000,-14.000,-9.216,66.162,-1.099,0.62,1.03,1.16
-0.432,0.916,0.179,44.000,0.000,-14.000,-18.921,65.002,3.052,0.62,1.03,1.18
-0.452,1.086,0.162,44.000,0.000,-14.000,-18.188,62.012,-3.418,0.63,1.04,1.19
-0.444,1.083,0.208,44.000,0.000,-14.000,-11.475,60.852,-17.151,0.64,1.04,1.20
-0.405,0.860,0.278,44.000,0.000,-14.000,-10.132,62.012,-31.799,0.64,1.05,1.21
-0.433,1.006,0.169,44.000,1.000,-16.000,-25.024,68.726,-25.146,0.65,1.05,1.22
-0.407,0.961,0.163,44.000,1.000,-16.000,-32.471,65.796,-31.433,0.66,1.05,1.23
-0.390,0.939,0.152,44.000,1.000,-16.000,-30.396,64.026,-33.264,0.67,1.06,1.24
-0.374,0.991,0.163,44.000,1.000,-16.000,-26.855,59.570,-38.818,0.68,1.06,1.25
-0.363,1.008,0.247,44.000,1.000,-16.000,-19.348,65.857,-49.438,0.69,1.06,1.25
-0.347,1.064,0.266,44.000,1.000,-16.000,-17.029,70.801,-54.749,0.70,1.06,1.26
-0.326,1.054,0.241,45.000,1.000,-14.000,-17.578,81.177,-68.665,0.72,1.07,1.27
-0.267,0.922,0.177,45.000,1.000,-14.000,-15.930,90.027,-79.407,0.74,1.07,1.28
-0.230,0.995,0.163,45.000,1.000,-14.000,-12.390,91.370,-74.219,0.75,1.08,1.29
-0.255,1.043,0.164,45.000,1.000,-14.000,-14.648,92.468,-79.407,0.77,1.08,1.30
-0.248,1.125,0.082,45.000,1.000,-14.000,-13.062,93.506,-96.191,0.79,1.09,1.31
-0.227,1.182,-0.062,45.000,0.000,-18.000,-9.888,81.482,-124.878,0.81,1.09,1.32
-0.093,0.675,-0.124,45.000,0.000,-18.000,-16.052,70.557,-135.010,0.84,1.09,1.32
0.015,0.587,0.026,45.000,0.000,-18.000,-21.790,49.744,-100.830,0.86,1.09,1.32
-0.077,1.147,0.212,45.000,0.000,-18.000,-11.719,54.138,-59.570,0.87,1.09,1.33
-0.164,1.359,0.231,45.000,0.000,-18.000,-18.127,75.378,-86.487,0.88,1.10,1.34
-0.181,1.351,0.099,45.000,-8.000,-19.000,-37.964,91.492,-141.052,0.91,1.10,1.34
-0.141,1.290,0.041,45.000,-8.000,-19.000,-69.397,91.309,-190.308,0.94,1.08,1.34
-0.022,0.837,-0.144,45.000,-8.000,-19.000,-94.666,71.289,-199.829,0.98,1.06,1.33
0.113,0.678,-0.068,45.000,-8.000,-19.000,-110.046,54.077,-170.166,1.01,1.04,1.32
0.151,0.998,-0.070,45.000,-8.000,-19.000,-120.972,43.030,-156.860,1.03,1.01,1.31
0.198,0.892,0.054,45.000,-8.000,-19.000,-93.323,46.204,-169.983,1.06,0.98,1.29
0.428,0.547,-0.431,40.000,-17.000,-24.000,-84.839,77.515,-178.833,1.09,0.95,1.28
0.505,0.331,-0.235,40.000,-17.000,-24.000,-96.497,43.396,-143.005,1.11,0.92,1.27
0.461,1.110,0.093,40.000,-17.000,-24.000,-131.287,33.142,-85.205,1.13,0.89,1.26
0.422,1.445,0.155,40.000,-17.000,-24.000,-110.779,72.571,-130.920,1.15,0.87,1.25
0.425,0.831,-0.135,40.000,-17.000,-24.000,-48.950,126.831,-192.200,1.19,0.85,1.24
0.530,0.159,-0.894,32.000,-20.000,-29.000,-100.952,81.360,-155.701,1.22,0.82,1.22
0.536,0.241,-0.620,32.000,-20.000,-29.000,-129.272,32.288,-118.164,1.23,0.77,1.20
0.608,0.744,-0.107,32.000,-20.000,-29.000,-156.006,-12.939,-65.613,1.24,0.72,1.17
0.649,0.745,-0.218,32.000,-20.000,-29.000,-140.137,12.268,-82.825,1.25,0.67,1.14
0.618,0.698,-0.346,32.000,-20.000,-29.000,-147.583,26.672,-105.713,1.26,0.62,1.11
0.575,0.775,-0.410,18.000,-22.000,-41.000,-165.344,34.912,-127.563,1.28,0.55,1.07
0.519,0.786,-0.523,18.000,-22.000,-41.000,-163.025,32.288,-171.692,1.30,0.45,0.99
0.636,0.252,-0.535,18.000,-22.000,-41.000,-183.655,16.174,-181.763,1.31,0.32,0.89
0.742,-0.232,-0.357,18.000,-22.000,-41.000,-204.407,10.254,-156.494,1.32,0.19,0.79
0.710,0.187,-0.466,18.000,-22.000,-41.000,-246.826,24.963,-79.224,1.33,0.10,0.74
0.625,0.786,-0.818,18.000,-22.000,-41.000,-236.694,37.231,-82.031,1.33,0.01,0.69
0.502,0.740,-0.719,2.000,-23.000,-39.000,-164.673,12.268,-173.462,1.34,-0.13,0.57
0.509,0.075,-0.544,2.000,-23.000,-39.000,-172.424,-0.854,-261.169,1.33,-0.34,0.39
0.569,-0.370,-0.457,2.000,-23.000,-39.000,-218.445,2.869,-267.761,1.31,-0.54,0.22
0.667,-0.853,-0.349,2.000,-23.000,-39.000,-270.691,24.109,-188.110,1.29,-0.69,0.11
0.659,-0.591,-0.586,2.000,-23.000,-39.000,-295.593,35.034,-82.092,1.29,-0.79,0.06
0.579,-0.059,-0.814,-16.000,-17.000,-31.000,-274.353,10.315,-67.383,1.28,-0.87,0.02
0.504,0.151,-0.808,-16.000,-17.000,-31.000,-249.329,-12.695,-94.666,1.27,-0.94,-0.01
0.469,0.067,-0.515,-16.000,-17.000,-31.000,-222.595,-59.021,-159.607,1.24,-1.00,-0.04
0.358,-0.121,-0.396,-16.000,-17.000,-31.000,-258.423,-73.181,-218.750,1.20,-1.07,-0.06
0.267,-0.641,-0.268,-16.000,-17.000,-31.000,-292.053,-89.661,-261.780,1.16,-1.14,-0.08
0.297,-1.365,0.047,-33.000,-10.000,-18.000,-315.613,-98.694,-258.545,1.11,-1.20,-0.09
0.450,-1.227,0.100,-33.000,-10.000,-18.000,-350.647,-69.580,-144.165,1.08,-1.25,-0.08
0.468,-0.895,0.053,-33.000,-10.000,-18.000,-351.562,-53.223,-71.411,1.06,-1.30,-0.07
0.395,-0.482,-0.014,-33.000,-10.000,-18.000,-378.967,-58.838,-82.275,1.05,-1.36,-0.06
0.276,-0.460,0.007,-33.000,-10.000,-18.000,-373.535,-80.994,-114.685,1.02,-1.40,-0.04
0.180,-0.554,0.195,-34.000,-3.000,5.000,-346.558,-114.563,-147.644,0.99,-1.44,-0.01
0.161,-0.812,0.522,-34.000,-3.000,5.000,-328.064,-132.751,-159.973,0.96,-1.46,0.02
0.144,-0.988,0.713,-34.000,-3.000,5.000,-285.461,-150.024,-159.119,0.93,-1.48,0.06
0.133,-0.809,0.667,-34.000,-3.000,5.000,-242.554,-144.531,-130.249,0.91,-1.49,0.10
0.059,-0.642,0.654,-34.000,-3.000,5.000,-217.346,-145.996,-109.802,0.89,-1.49,0.14
-0.044,-0.679,0.766,-34.000,-3.000,5.000,-224.609,-150.024,-98.694,0.87,-1.50,0.18
-0.082,-0.727,0.870,-25.000,9.000,22.000,-209.290,-151.123,-92.041,0.85,-1.51,0.22
-0.119,-0.769,1.079,-25.000,9.000,22.000,-171.814,-130.005,-90.271,0.83,-1.51,0.25
-0.103,-0.746,1.116,-25.000,9.000,22.000,-143.188,-87.891,-90.698,0.82,-1.52,0.27
-0.096,-0.640,0.866,-25.000,9.000,22.000,-118.225,-65.186,-80.933,0.80,-1.53,0.29
-0.160,-0.458,0.651,-25.000,9.000,22.000,-107.605,-71.533,-78.247,0.79,-1.53,0.30
-0.281,-0.477,0.866,-19.000,18.000,23.000,-96.375,-103.760,-85.876,0.77,-1.53,0.33
-0.357,-0.686,1.041,-19.000,18.000,23.000,-101.807,-101.501,-87.769,0.76,-1.53,0.35
-0.365,-0.641,0.946,-19.000,18.000,23.000,-88.989,-82.092,-58.594,0.75,-1.53,0.37
-0.346,-0.447,0.916,-19.000,18.000,23.000,-70.374,-76.538,-37.231,0.74,-1.53,0.39
-0.339,-0.394,0.923,-19.000,18.000,23.000,-69.092,-70.374,-44.189,0.73,-1.53,0.41
-0.342,-0.326,0.794,-14.000,23.000,16.000,-72.083,-72.449,-58.777,0.72,-1.53,0.42
-0.418,-0.236,0.710,-14.000,23.000,16.000,-64.148,-104.248,-72.144,0.71,-1.52,0.45
-0.457,-0.320,0.948,-14.000,23.000,16.000,-62.439,-105.286,-74.646,0.70,-1.52,0.47
-0.455,-0.422,0.993,-14.000,23.000,16.000,-60.974,-92.468,-66.772,0.68,-1.51,0.49
-0.411,-0.226,0.955,-14.000,23.000,16.000,-42.542,-69.580,-43.152,0.68,-1.51,0.50
-0.387,0.022,0.765,-9.000,30.000,16.000,-33.508,-51.819,-44.678,0.67,-1.51,0.52
-0.475,0.049,0.660,-9.000,30.000,16.000,-38.818,-61.401,-73.364,0.66,-1.51,0.53
-0.529,0.095,0.731,-9.000,30.000,16.000,-31.555,-95.947,-105.164,0.64,-1.50,0.55
-0.576,0.018,0.889,-9.000,30.000,16.000,-27.893,-120.361,-138.428,0.61,-1.49,0.57
-0.648,-0.310,1.159,-9.000,30.000,16.000,-21.301,-81.665,-133.301,0.59,-1.48,0.59
-0.662,-0.315,0.990,-9.000,30.000,16.000,6.409,-33.508,-90.393,0.58,-1.48,0.59
-0.689,-0.055,0.779,-2.000,33.000,10.000,13.672,-24.780,-80.261,0.56,-1.47,0.60
-0.761,-0.103,0.792,-2.000,33.000,10.000,9.521,-27.222,-91.370,0.55,-1.47,0.60
-0.792,-0.233,0.911,-2.000,33.000,10.000,6.775,-33.508,-101.807,0.53,-1.47,0.61
-0.721,-0.115,0.909,-2.000,33.000,10.000,9.583,-27.710,-93.445,0.52,-1.46,0.61
-0.677,0.095,0.995,-2.000,33.000,10.000,13.550,-16.052,-91.919,0.50,-1.46,0.61
-0.682,0.151,1.028,4.000,36.000,3.000,3.296,13.123,-114.014,0.48,-1.46,0.61
-0.694,0.195,0.868,4.000,36.000,3.000,0.122,30.701,-138.428,0.46,-1.46,0.60
-0.677,0.377,0.728,4.000,36.000,3.000,5.615,16.113,-173.950,0.43,-1.46,0.59
-0.776,0.011,0.829,4.000,36.000,3.000,0.916,9.766,-190.491,0.40,-1.46,0.59
-0.786,-0.349,1.109,4.000,36.000,3.000,11.353,12.329,-170.959,0.37,-1.46,0.58
-0.703,-0.001,1.422,12.000,32.000,15.000,47.729,44.250,-110.535,0.36,-1.46,0.57
-0.768,0.166,1.174,12.000,32.000,15.000,51.392,102.417,-108.704,0.34,-1.45,0.55
-0.776,0.112,0.923,12.000,32.000,15.000,49.805,123.779,-119.934,0.32,-1.45,0.53
-0.745,0.066,0.607,12.000,32.000,15.000,54.871,87.219,-109.375,0.31,-1.45,0.51
-0.599,-0.034,0.924,12.000,32.000,15.000,61.340,61.218,-99.426,0.29,-1.44,0.50
-0.560,0.041,1.330,12.000,32.000,15.000,81.909,52.979,-75.073,0.28,-1.43,0.49
-0.542,-0.011,1.300,18.000,29.000,23.000,80.566,98.083,-58.411,0.28,-1.42,0.47
-0.597,-0.008,0.894,18.000,29.000,23.000,75.806,138.306,-35.828,0.27,-1.41,0.44
-0.599,0.121,0.676,18.000,29.000,23.000,85.632,131.531,-20.325,0.27,-1.40,0.42
-0.479,0.181,0.546,18.000,29.000,23.000,73.730,85.632,-34.668,0.27,-1.39,0.41
-0.350,-0.068,1.027,18.000,29.000,23.000,67.261,66.650,-36.743,0.27,-1.39,0.39
-0.283,-0.044,1.136,16.000,22.000,29.000,65.063,84.778,-32.471,0.27,-1.38,0.38
-0.215,0.121,0.868,16.000,22.000,29.000,68.298,101.257,-34.424,0.26,-1.37,0.36
-0.313,-0.087,0.953,16.000,22.000,29.000,54.565,86.304,-54.382,0.26,-1.36,0.34
-0.332,-0.531,1.162,16.000,22.000,29.000,33.936,94.543,-50.110,0.25,-1.36,0.33
-0.311,-0.626,1.274,16.000,22.000,29.000,62.927,129.761,5.676,0.26,-1.36,0.31
-0.295,-0.393,1.404,16.000,22.000,29.000,112.732,175.537,62.622,0.28,-1.34,0.28
-0.172,-0.175,1.094,14.000,15.000,36.000,107.971,202.881,82.275,0.30,-1.33,0.25
-0.111,-0.446,0.674,14.000,15.000,36.000,109.314,190.735,92.407,0.32,-1.32,0.22
-0.184,-0.504,0.724,14.000,15.000,36.000,150.940,131.042,141.663,0.35,-1.30,0.20
-0.096,-0.224,0.739,14.000,15.000,36.000,180.725,76.782,190.552,0.38,-1.27,0.20
0.089,-0.180,1.001,14.000,15.000,36.000,158.569,32.471,194.214,0.41,-1.24,0.21
0.113,-0.162,1.195,-1.000,7.000,40.000,133.972,33.081,184.937,0.45,-1.21,0.21
0.190,-0.017,1.300,-1.000,7.000,40.000,99.182,75.806,158.508,0.47,-1.20,0.21
0.200,0.101,0.991,-1.000,7.000,40.000,80.811,94.238,134.705,0.50,-1.19,0.20
0.264,0.077,0.655,-1.000,7.000,40.000,50.537,99.487,77.576,0.52,-1.18,0.19
0.241,-0.100,0.674,-1.000,7.000,40.000,28.870,63.721,24.048,0.53,-1.18,0.18
0.245,-0.127,0.868,-6.000,2.000,40.000,14.282,37.720,-3.662,0.53,-1.18,0.18
0.214,-0.118,0.854,-6.000,2.000,40.000,-15.564,47.424,-31.738,0.52,-1.19,0.17
0.153,-0.432,0.598,-6.000,2.000,40.000,-40.588,44.556,-55.359,0.52,-1.20,0.15
0.224,-0.868,0.610,-6.000,2.000,40.000,-2.197,-4.211,-18.188,0.51,-1.20,0.15
0.333,-0.684,0.936,-6.000,2.000,40.000,33.508,-18.799,17.151,0.51,-1.19,0.16
0.246,-0.176,1.054,-6.000,2.000,40.000,79.895,-0.610,57.678,0.52,-1.17,0.16
0.156,-0.364,0.972,-7.000,0.000,42.000,53.040,37.048,32.349,0.53,-1.17,0.16
0.182,-0.602,0.704,-7.000,0.000,42.000,35.400,48.584,24.170,0.54,-1.16,0.15
0.222,-0.557,0.658,-7.000,0.000,42.000,58.533,22.278,44.189,0.54,-1.15,0.15
0.366,-0.411,0.845,-7.000,0.000,42.000,70.374,8.789,58.167,0.55,-1.14,0.16
0.420,-0.161,1.064,-7.000,0.000,42.000,65.796,33.325,52.795,0.56,-1.13,0.16
0.376,-0.047,1.064,-12.000,-5.000,38.000,55.054,53.894,36.133,0.57,-1.12,0.15
0.252,-1.184,1.193,-12.000,-5.000,38.000,36.804,98.877,4.395,0.58,-1.12,0.13
0.293,-0.429,0.596,-12.000,-5.000,38.000,75.500,148.499,97.900,0.60,-1.12,0.12
0.432,-0.365,0.428,-12.000,-5.000,38.000,80.078,128.723,91.614,0.62,-1.11,0.10
0.482,-0.474,0.633,-12.000,-5.000,38.000,82.642,80.566,78.857,0.64,-1.10,0.09
0.527,-0.386,0.944,-16.000,-17.000,37.000,74.768,114.746,89.172,0.66,-1.10,0.08
0.555,-0.325,0.485,-16.000,-17.000,37.000,41.748,143.677,79.895,0.68,-1.10,0.06
0.586,-0.449,0.344,-16.000,-17.000,37.000,41.260,120.483,75.989,0.70,-1.11,0.05
0.634,-0.381,0.612,-16.000,-17.000,37.000,47.913,77.393,74.219,0.72,-1.10,0.04
0.652,-0.445,0.713,-16.000,-17.000,37.000,46.082,83.435,66.467,0.73,-1.10,0.03
0.655,-0.488,0.604,-16.000,-17.000,37.000,45.227,106.384,68.115,0.75,-1.10,0.01
0.692,-0.390,0.492,-13.000,-25.000,30.000,49.377,119.812,75.500,0.77,-1.11,-0.00
0.718,-0.354,0.532,-13.000,-25.000,30.000,50.232,122.009,73.914,0.79,-1.11,-0.02
0.707,-0.515,0.707,-13.000,-25.000,30.000,57.190,142.456,78.796,0.81,-1.11,-0.04
0.695,-0.588,0.557,-13.000,-25.000,30.000,80.933,175.415,116.333,0.84,-1.12,-0.07
0.753,-0.184,0.158,-13.000,-25.000,30.000,75.317,170.959,119.507,0.87,-1.13,-0.09
0.806,-0.067,0.025,-17.000,-35.000,25.000,69.946,145.386,99.731,0.89,-1.13,-0.12
0.835,-0.337,0.360,-17.000,-35.000,25.000,64.331,101.257,66.528,0.91,-1.14,-0.13
0.870,-0.368,0.449,-17.000,-35.000,25.000,54.626,118.408,76.172,0.93,-1.14,-0.15
0.849,-0.324,0.174,-17.000,-35.000,25.000,82.336,145.935,93.018,0.95,-1.15,-0.18
0.860,-0.053,-0.055,-17.000,-35.000,25.000,116.577,137.878,104.553,0.98,-1.15,-0.21
0.868,-0.017,-0.052,-15.000,-44.000,16.000,133.423,110.718,83.252,1.00,-1.15,-0.23
0.840,-0.175,0.013,-15.000,-44.000,16.000,117.371,111.145,76.843,1.01,-1.14,-0.25
0.852,-0.123,-0.073,-15.000,-44.000,16.000,104.248,117.432,90.210,1.04,-1.15,-0.27
0.939,0.126,-0.069,-15.000,-44.000,16.000,106.079,113.892,88.989,1.06,-1.15,-0.29
0.923,0.043,-0.025,-15.000,-44.000,16.000,125.854,110.718,64.209,1.07,-1.15,-0.32
0.883,-0.076,-0.219,-15.000,-44.000,16.000,139.526,118.347,52.734,1.09,-1.15,-0.35
0.855,-0.051,-0.245,-11.000,-47.000,4.000,144.897,108.948,62.378,1.11,-1.16,-0.38
0.879,-0.070,-0.195,-11.000,-47.000,4.000,192.078,99.670,76.050,1.12,-1.14,-0.40
0.879,-0.073,-0.134,-11.000,-47.000,4.000,85.083,103.149,98.267,1.15,-1.15,-0.43
0.865,0.128,-0.139,-11.000,-47.000,4.000,102.356,116.089,101.074,1.17,-1.16,-0.45
0.832,0.226,-0.310,-11.000,-47.000,4.000,125.549,115.723,85.999,1.19,-1.17,-0.48
0.767,0.129,-0.387,-4.000,-49.000,-9.000,99.060,109.802,87.219,1.21,-1.18,-0.52
0.726,0.111,-0.381,-4.000,-49.000,-9.000,83.679,108.032,96.680,1.23,-1.20,-0.55
0.722,0.289,-0.380,-4.000,-49.000,-9.000,74.158,110.046,117.859,1.26,-1.22,-0.58
0.738,0.576,-0.393,-4.000,-49.000,-9.000,97.900,112.000,119.568,1.28,-1.24,-0.62
0.727,0.675,-0.412,-4.000,-49.000,-9.000,108.337,111.206,87.952,1.30,-1.26,-0.67
0.690,0.564,-0.443,5.000,-48.000,-20.000,101.318,109.741,49.438,1.32,-1.31,-0.73
0.672,0.524,-0.467,5.000,-48.000,-20.000,84.839,108.704,35.522,1.33,-1.36,-0.80
0.643,0.525,-0.535,5.000,-48.000,-20.000,63.293,106.201,35.767,1.34,-1.42,-0.87
0.630,0.574,-0.584,5.000,-48.000,-20.000,52.795,98.206,31.250,1.35,-1.48,-0.94
0.629,0.545,-0.510,5.000,-48.000,-20.000,59.143,91.064,19.226,1.35,-1.54,-1.01
0.617,0.517,-0.432,8.000,-44.000,-23.000,65.063,93.323,15.930,1.35,-1.60,-1.09
0.574,0.498,-0.497,8.000,-44.000,-23.000,72.754,101.318,12.512,1.36,-1.67,-1.17
0.522,0.413,-0.540,8.000,-44.000,-23.000,64.758,103.333,18.799,1.36,-1.75,-1.26
0.506,0.519,-0.572,8.000,-44.000,-23.000,46.936,102.966,36.255,1.36,-1.83,-1.35
0.506,0.724,-0.576,8.000,-44.000,-23.000,42.419,102.539,40.039,1.36,-1.91,-1.44
0.494,0.769,-0.593,8.000,-44.000,-23.000,57.800,102.539,21.301,1.36,-1.99,-1.53
0.460,0.651,-0.530,16.000,-38.000,-25.000,68.726,101.257,3.723,1.35,-2.05,-1.61
0.406,0.430,-0.443,16.000,-38.000,-25.000,64.636,114.319,16.418,1.34,-2.13,-1.70
0.352,0.538,-0.622,16.000,-38.000,-25.000,55.359,120.605,36.743,1.34,-2.21,-1.79
0.326,0.725,-0.742,16.000,-38.000,-25.000,52.612,117.554,39.978,1.33,-2.29,-1.88
0.330,0.866,-0.649,16.000,-38.000,-25.000,51.025,106.384,35.706,1.32,-2.36,-1.96
0.323,0.864,-0.581,18.000,-32.000,-34.000,56.030,104.126,23.621,1.31,-2.41,-2.02
0.282,0.591,-0.497,18.000,-32.000,-34.000,58.105,105.835,4.028,1.30,-2.45,-2.07
0.211,0.483,-0.564,18.000,-32.000,-34.000,46.387,115.723,15.747,1.29,-2.50,-2.13
0.172,0.562,-0.712,18.000,-32.000,-34.000,33.264,119.507,45.044,1.27,-2.56,-2.20
0.133,0.752,-0.903,18.000,-32.000,-34.000,20.569,97.473,54.260,1.26,-2.61,-2.26
0.137,0.893,-0.748,22.000,-24.000,-35.000,17.578,77.942,47.241,1.26,-2.65,-2.31
0.122,0.900,-0.595,22.000,-24.000,-35.000,30.029,74.036,31.067,1.25,-2.69,-2.35
0.086,0.755,-0.488,22.000,-24.000,-35.000,37.231,78.125,20.081,1.24,-2.71,-2.38
0.027,0.665,-0.744,22.000,-24.000,-35.000,43.396,93.567,16.479,1.22,-2.73,-2.41
0.036,0.819,-0.829,22.000,-24.000,-35.000,31.799,79.956,29.724,1.21,-2.76,-2.44
0.077,0.939,-0.641,21.000,-17.000,-35.000,25.208,60.730,25.330,1.20,-2.78,-2.47
0.084,0.906,-0.452,21.000,-17.000,-35.000,25.269,59.326,9.155,1.19,-2.79,-2.48
0.077,0.883,-0.390,21.000,-17.000,-35.000,29.663,72.510,-0.366,1.18,-2.80,-2.50
0.031,0.874,-0.500,21.000,-17.000,-35.000,31.494,89.478,-3.784,1.17,-2.81,-2.51
-0.024,0.874,-0.746,21.000,-17.000,-35.000,21.729,83.801,-2.930,1.15,-2.82,-2.53
-0.014,0.937,-0.642,21.000,-17.000,-35.000,15.442,69.641,-6.470,1.14,-2.82,-2.54
0.004,1.047,-0.430,25.000,-12.000,-38.000,18.005,72.083,-12.573,1.13,-2.83,-2.54
-0.038,1.016,-0.526,25.000,-12.000,-38.000,29.419,88.806,-33.264,1.11,-2.83,-2.54
-0.118,0.828,-0.746,25.000,-12.000,-38.000,32.043,96.741,-46.204,1.10,-2.82,-2.54
-0.156,0.762,-0.736,25.000,-12.000,-38.000,20.813,86.792,-36.682,1.08,-2.82,-2.54
-0.169,0.869,-0.684,25.000,-12.000,-38.000,9.583,80.383,-21.179,1.07,-2.82,-2.55
-0.165,1.023,-0.745,26.000,-9.000,-39.000,3.601,77.209,-18.066,1.05,-2.83,-2.55
-0.148,1.063,-0.767,26.000,-9.000,-39.000,2.319,65.918,-28.320,1.04,-2.83,-2.55
-0.142,1.088,-0.680,26.000,-9.000,-39.000,12.024,49.927,-42.847,1.03,-2.82,-2.55
-0.147,0.966,-0.534,26.000,-9.000,-39.000,-8.911,64.270,-49.316,1.02,-2.82,-2.54
-0.185,0.839,-0.709,26.000,-9.000,-39.000,-22.827,62.012,-40.222,1.00,-2.82,-2.54
-0.152,0.889,-0.670,29.000,-5.000,-37.000,-27.466,52.979,-27.710,0.99,-2.82,-2.54
-0.153,1.019,-0.674,29.000,-5.000,-37.000,-27.527,49.194,-28.931,0.98,-2.83,-2.54
-0.156,0.936,-0.670,29.000,-5.000,-37.000,-29.480,40.161,-40.588,0.97,-2.83,-2.53
-0.143,0.865,-0.611,29.000,-5.000,-37.000,-37.720,32.227,-42.358,0.97,-2.83,-2.52
-0.171,0.870,-0.512,29.000,-5.000,-37.000,-33.020,32.288,-44.617,0.96,-2.83,-2.52
-0.134,0.741,-0.610,24.000,-1.000,-45.000,-20.264,41.077,-49.744,0.95,-2.83,-2.51
-0.128,0.838,-0.707,24.000,-1.000,-45.000,-10.132,38.452,-46.204,0.94,-2.83,-2.50
-0.134,0.830,-0.706,24.000,-1.000,-45.000,-1.160,26.978,-53.101,0.93,-2.82,-2.49
-0.133,0.782,-0.663,24.000,-1.000,-45.000,2.869,21.362,-56.519,0.93,-2.81,-2.48
-0.175,0.793,-0.680,24.000,-1.000,-45.000,-6.714,14.282,-58.044,0.92,-2.80,-2.47
-0.159,0.737,-0.615,24.000,-1.000,-45.000,-17.090,9.705,-60.547,0.92,-2.80,-2.46
-0.126,0.738,-0.659,24.000,-5.000,-40.000,-18.127,7.507,-57.739,0.91,-2.79,-2.44
-0.132,0.727,-0.588,24.000,-5.000,-40.000,-13.794,1.831,-57.495,0.91,-2.79,-2.43
-0.115,0.678,-0.597,24.000,-5.000,-40.000,-8.423,4.761,-54.871,0.90,-2.78,-2.42
-0.081,0.720,-0.681,24.000,-5.000,-40.000,-3.845,5.859,-46.265,0.90,-2.77,-2.41
-0.047,0.798,-0.739,24.000,-5.000,-40.000,-5.493,-1.160,-40.100,0.90,-2.77,-2.40
-0.014,0.863,-0.694,23.000,-4.000,-41.000,-12.451,-11.047,-39.551,0.89,-2.76,-2.39
0.012,0.953,-0.601,23.000,-4.000,-41.000,-15.137,-13.550,-43.335,0.89,-2.76,-2.38
0.015,0.976,-0.611,23.000,-4.000,-41.000,-14.343,-7.690,-54.077,0.89,-2.75,-2.37
-0.000,0.948,-0.745,23.000,-4.000,-41.000,-21.606,-8.423,-61.768,0.89,-2.75,-2.36
-0.033,1.019,-0.923,23.000,-4.000,-41.000,-32.837,-22.217,-70.129,0.89,-2.74,-2.34
-0.042,1.075,-0.975,21.000,-10.000,-44.000,-54.871,-52.429,-89.539,0.89,-2.73,-2.31
-0.033,0.933,-0.844,21.000,-10.000,-44.000,-90.637,-72.815,-106.689,0.89,-2.72,-2.28
-0.014,0.773,-0.809,21.000,-10.000,-44.000,-105.896,-77.515,-108.582,0.90,-2.71,-2.25
0.008,0.687,-0.929,21.000,-10.000,-44.000,-132.568,-88.806,-105.225,0.90,-2.71,-2.22
0.047,0.609,-1.096,21.000,-10.000,-44.000,-164.124,-112.427,-95.337,0.91,-2.71,-2.18
0.124,0.577,-0.943,10.000,-21.000,-40.000,-214.355,-150.879,-78.552,0.93,-2.72,-2.15
0.249,0.509,-0.538,10.000,-21.000,-40.000,-229.858,-167.236,-67.444,0.95,-2.73,-2.11
0.271,0.512,-0.829,10.000,-21.000,-40.000,-197.266,-143.677,-59.570,0.97,-2.74,-2.08
0.271,0.544,-1.013,10.000,-21.000,-40.000,-206.665,-155.334,-54.687,0.99,-2.75,-2.05
0.327,0.545,-0.970,10.000,-21.000,-40.000,-237.488,-181.335,-59.509,1.01,-2.76,-2.01
0.376,0.388,-0.898,-8.000,-30.000,-33.000,-247.192,-196.289,-62.195,1.03,-2.77,-1.97
0.444,0.226,-0.729,-8.000,-30.000,-33.000,-242.126,-205.933,-55.298,1.06,-2.77,-1.93
0.519,0.055,-0.414,-8.000,-30.000,-33.000,-228.088,-190.674,-40.405,1.09,-2.78,-1.90
0.642,-0.029,-0.355,-8.000,-30.000,-33.000,-208.374,-171.692,-28.992,1.11,-2.79,-1.86
0.663,0.062,-0.682,-8.000,-30.000,-33.000,-152.283,-138.611,-8.728,1.13,-2.79,-1.84
0.663,0.077,-0.687,-8.000,-30.000,-33.000,-116.943,-148.193,-6.470,1.15,-2.79,-1.82
0.712,0.052,-0.284,-16.000,-37.000,-20.000,-100.525,-161.743,-9.949,1.18,-2.79,-1.79
0.754,-0.054,-0.215,-16.000,-37.000,-20.000,-99.426,-141.541,-11.292,1.20,-2.78,-1.77
0.736,-0.186,-0.493,-16.000,-37.000,-20.000,-111.328,-118.408,-2.197,1.22,-2.78,-1.74
0.670,-0.170,-0.748,-16.000,-37.000,-20.000,-112.610,-125.305,13.733,1.24,-2.78,-1.73
0.649,-0.123,-0.631,-16.000,-37.000,-20.000,-113.281,-162.415,21.362,1.26,-2.78,-1.71
0.709,-0.082,-0.040,-16.000,-44.000,-2.000,-109.436,-171.204,26.001,1.29,-2.78,-1.69
0.815,0.003,0.165,-16.000,-44.000,-2.000,-79.163,-126.892,25.024,1.31,-2.78,-1.68
0.828,0.038,-0.335,-16.000,-44.000,-2.000,-62.927,-108.154,15.808,1.33,-2.78,-1.66
0.706,-0.041,-0.688,-16.000,-44.000,-2.000,-70.435,-148.804,9.155,1.35,-2.76,-1.63
0.630,-0.079,-0.366,-16.000,-44.000,-2.000,-81.177,-175.049,11.841,1.38,-2.72,-1.58
0.695,-0.004,0.265,-17.000,-45.000,10.000,-101.929,-200.928,17.456,1.41,-2.68,-1.51
0.833,0.094,0.458,-17.000,-45.000,10.000,-125.244,-169.983,20.447,1.44,-2.63,-1.44
0.882,0.149,0.077,-17.000,-45.000,10.000,-143.616,-120.544,15.686,1.46,-2.59,-1.38
0.801,0.068,-0.119,-17.000,-45.000,10.000,-114.868,-120.544,5.737,1.47,-2.51,-1.28
0.744,0.062,-0.063,-17.000,-45.000,10.000,-74.036,-145.264,3.113,1.49,-2.34,-1.10
0.739,0.088,0.048,-16.000,-42.000,14.000,-49.744,-172.852,-3.235,1.51,-2.01,-0.76
0.766,0.117,0.450,-16.000,-42.000,14.000,-51.208,-179.138,-12.146,1.51,-1.51,-0.25
0.804,0.090,0.588,-16.000,-42.000,14.000,-77.209,-147.583,-19.653,1.50,-1.15,0.13
0.774,0.018,0.472,-16.000,-42.000,14.000,-97.656,-119.141,-18.311,1.49,-0.95,0.34
0.713,-0.013,0.382,-16.000,-42.000,14.000,-97.473,-111.206,-16.479,1.48,-0.82,0.49
0.670,-0.006,0.302,-17.000,-37.000,24.000,-82.581,-109.863,-16.113,1.46,-0.72,0.60
0.658,0.006,0.511,-17.000,-37.000,24.000,-63.477,-128.784,-18.311,1.44,-0.64,0.70
0.680,0.103,0.644,-17.000,-37.000,24.000,-59.509,-128.906,-18.433,1.42,-0.58,0.77
0.658,0.096,0.693,-17.000,-37.000,24.000,-78.918,-112.793,-24.414,1.40,-0.55,0.81
0.631,0.072,0.636,-17.000,-37.000,24.000,-93.140,-92.896,-28.809,1.39,-0.54,0.84
0.577,0.045,0.351,-17.000,-37.000,24.000,-90.088,-107.666,-32.776,1.37,-0.53,0.86
0.539,0.088,0.255,-10.000,-27.000,36.000,-74.219,-164.062,-34.851,1.34,-0.50,0.90
0.552,0.309,0.542,-10.000,-27.000,36.000,-75.562,-217.957,-47.791,1.30,-0.47,0.94
0.535,0.202,1.367,-10.000,-27.000,36.000,-83.374,-216.614,-55.786,1.27,-0.46,0.97
0.511,0.057,1.635,-10.000,-27.000,36.000,-95.886,-122.864,-58.716,1.24,-0.47,0.98
0.509,0.026,0.860,-10.000,-27.000,36.000,-88.684,-35.583,-53.955,1.23,-0.50,0.96
0.474,0.141,0.298,-5.000,-18.000,43.000,-64.880,-57.068,-54.077,1.22,-0.52,0.95
0.419,0.188,0.619,-5.000,-18.000,43.000,-58.289,-140.198,-66.223,1.19,-0.52,0.96
0.353,0.012,1.292,-5.000,-18.000,43.000,-63.416,-166.931,-72.815,1.16,-0.52,0.97
0.346,0.001,1.436,-5.000,-18.000,43.000,-59.204,-107.544,-60.364,1.14,-0.53,0.97
0.366,-0.017,1.302,-5.000,-18.000,43.000,-44.128,-62.317,-49.011,1.12,-0.54,0.97
0.372,0.147,1.000,-6.000,-6.000,47.000,-29.358,-53.894,-46.143,1.11,-0.55,0.97
0.355,0.327,0.858,-6.000,-6.000,47.000,-36.987,-65.369,-70.801,1.10,-0.56,0.96
0.276,0.072,0.948,-6.000,-6.000,47.000,-39.001,-69.946,-80.261,1.08,-0.58,0.95
0.238,-0.148,1.141,-6.000,-6.000,47.000,-21.790,-75.562,-73.730,1.06,-0.58,0.94
0.260,-0.065,1.397,-6.000,-6.000,47.000,2.075,-63.721,-44.861,1.04,-0.58,0.94
0.290,0.244,1.246,-3.000,-5.000,41.000,11.169,-26.611,-32.166,1.04,-0.58,0.94
0.281,0.259,0.950,-3.000,-5.000,41.000,-9.277,-7.263,-57.556,1.03,-0.60,0.93
0.255,0.150,0.897,-3.000,-5.000,41.000,-12.695,-19.409,-79.712,1.02,-0.61,0.91
0.182,-0.143,0.904,-3.000,-5.000,41.000,9.583,-45.410,-77.271,1.00,-0.62,0.90
0.180,-0.406,0.978,-3.000,-5.000,41.000,49.561,-68.726,-30.396,0.99,-0.61,0.90
0.226,0.147,1.242,-3.000,-5.000,41.000,58.533,-75.195,-10.437,0.98,-0.59,0.92
0.247,0.381,1.307,-5.000,2.000,42.000,31.250,-57.678,-30.457,0.97,-0.58,0.92
0.226,0.047,1.098,-5.000,2.000,42.000,-8.179,-31.921,-71.960,0.95,-0.59,0.91
0.142,-0.151,1.089,-5.000,2.000,42.000,-13.245,-33.569,-74.097,0.94,-0.60,0.90
0.150,0.122,1.394,-5.000,2.000,42.000,-5.188,-27.283,-59.326,0.93,-0.61,0.89
0.131,-0.180,1.116,-5.000,2.000,42.000,-19.714,15.259,-70.801,0.93,-0.62,0.87
0.154,-0.179,1.004,-4.000,2.000,36.000,3.174,19.104,-44.556,0.92,-0.63,0.86
0.193,0.203,1.211,-4.000,2.000,36.000,16.479,14.465,-44.189,0.92,-0.64,0.85
0.213,0.125,1.252,-4.000,2.000,36.000,-2.808,40.833,-71.960,0.92,-0.66,0.83
0.204,-0.251,0.918,-4.000,2.000,36.000,-0.854,46.326,-71.167,0.91,-0.67,0.80
0.232,-0.304,0.909,-4.000,2.000,36.000,26.062,31.982,-40.466,0.91,-0.68,0.79
0.263,-0.021,1.076,-6.000,0.000,38.000,50.049,18.555,-9.399,0.91,-0.67,0.78
0.303,0.073,1.193,-6.000,0.000,38.000,48.157,21.301,-13.184,0.91,-0.67,0.78
0.313,-0.087,1.072,-6.000,0.000,38.000,35.645,34.546,-26.184,0.92,-0.67,0.77
0.295,-0.144,0.965,-6.000,0.000,38.000,32.166,36.804,-24.902,0.92,-0.67,0.76
0.310,-0.160,1.025,-6.000,0.000,38.000,43.213,29.480,-16.296,0.92,-0.67,0.75
0.333,-0.003,1.305,-6.000,0.000,38.000,50.720,43.213,-18.250,0.92,-0.67,0.74
0.289,-0.060,1.129,-8.000,0.000,43.000,39.063,57.007,-26.184,0.92,-0.68,0.72
0.351,-0.168,0.786,-8.000,0.000,43.000,25.024,60.974,-33.142,0.93,-0.69,0.71
0.369,-0.035,0.939,-8.000,0.000,43.000,43.579,35.828,-27.222,0.93,-0.69,0.70
0.377,-0.020,1.085,-8.000,0.000,43.000,34.851,32.593,-40.161,0.93,-0.69,0.68
0.363,-0.029,1.039,-8.000,0.000,43.000,24.475,41.931,-51.819,0.93,-0.70,0.66
0.368,-0.005,1.037,-8.000,0.000,42.000,27.893,46.143,-61.890,0.92,-0.71,0.64
0.377,-0.111,1.013,-8.000,0.000,42.000,13.794,57.129,-77.087,0.92,-0.73,0.62
0.359,-0.396,0.792,-8.000,0.000,42.000,14.160,55.786,-72.205,0.92,-0.75,0.59
0.400,-0.460,0.792,-8.000,0.000,42.000,33.813,46.753,-57.129,0.92,-0.76,0.57
0.404,-0.203,0.919,-8.000,0.000,42.000,76.721,36.377,-26.367,0.92,-0.75,0.56
0.410,-0.007,0.915,-11.000,-4.000,43.000,72.388,44.495,-29.114,0.92,-0.75,0.55
0.393,-0.122,0.958,-11.000,-4.000,43.000,26.428,62.561,-63.538,0.92,-0.77,0.52
0.371,-0.125,1.184,-11.000,-4.000,43.000,-13.794,98.022,-98.877,0.92,-0.80,0.49
0.280,-0.339,1.004,-11.000,-4.000,43.000,-41.992,163.391,-135.437,0.92,-0.85,0.43
0.294,-0.699,0.289,-11.000,-4.000,43.000,-1.831,148.437,-123.291,0.92,-0.89,0.38
0.358,-0.726,0.261,-11.000,-4.000,43.000,37.476,71.045,-81.543,0.91,-0.91,0.35
0.406,-0.604,0.679,-10.000,-9.000,36.000,44.312,47.729,-66.895,0.91,-0.92,0.32
0.432,-0.311,0.921,-10.000,-9.000,36.000,27.710,62.805,-59.021,0.90,-0.93,0.30
0.405,-0.319,0.774,-10.000,-9.000,36.000,-8.301,105.225,-95.154,0.90,-0.96,0.26
0.388,-0.599,0.565,-10.000,-9.000,36.000,-33.386,118.530,-130.493,0.89,-1.01,0.22
0.436,-0.779,0.364,-10.000,-9.000,36.000,-35.828,105.530,-132.263,0.88,-1.04,0.18
0.464,-0.796,0.351,-13.000,-13.000,40.000,-1.831,61.096,-107.239,0.87,-1.07,0.15
0.496,-0.766,0.597,-13.000,-13.000,40.000,17.090,41.138,-58.655,0.86,-1.08,0.13
0.521,-0.494,0.801,-13.000,-13.000,40.000,-6.531,66.223,-57.739,0.86,-1.09,0.11
0.567,-0.397,0.621,-13.000,-13.000,40.000,-26.062,84.900,-86.914,0.85,-1.12,0.08
0.572,-0.571,0.462,-13.000,-13.000,40.000,-18.311,79.712,-95.886,0.84,-1.14,0.05
0.555,-0.667,0.520,-11.000,-15.000,38.000,-5.005,55.786,-94.727,0.83,-1.16,0.03
0.522,-0.660,0.639,-11.000,-15.000,38.000,-6.409,41.382,-87.646,0.82,-1.17,0.01
0.526,-0.589,0.655,-11.000,-15.000,38.000,-9.583,49.500,-84.839,0.80,-1.19,-0.00
0.519,-0.687,0.491,-11.000,-15.000,38.000,-0.061,59.387,-87.097,0.79,-1.20,-0.02
0.495,-0.765,0.471,-11.000,-15.000,38.000,23.621,43.457,-77.759,0.78,-1.21,-0.04
0.469,-0.788,0.530,-12.000,-16.000,39.000,41.748,28.992,-65.979,0.77,-1.21,-0.05
0.420,-0.740,0.715,-12.000,-16.000,39.000,36.926,41.016,-60.730,0.76,-1.21,-0.07
0.401,-0.673,0.604,-12.000,-16.000,39.000,18.005,61.523,-67.322,0.76,-1.22,-0.08
0.398,-0.713,0.439,-12.000,-16.000,39.000,14.832,63.538,-70.740,0.75,-1.23,-0.10
0.393,-0.891,0.385,-12.000,-16.000,39.000,14.648,56.824,-69.458,0.74,-1.24,-0.12
0.403,-0.971,0.417,-12.000,-16.000,39.000,22.095,45.837,-51.758,0.73,-1.25,-0.13
0.402,-0.931,0.546,-19.000,-16.000,31.000,40.894,42.480,-32.288,0.73,-1.25,-0.15
0.423,-0.885,0.555,-19.000,-16.000,31.000,62.500,57.251,-20.386,0.72,-1.25,-0.16
0.430,-0.900,0.431,-19.000,-16.000,31.000,91.553,75.378,-8.057,0.73,-1.24,-0.17
0.434,-0.852,0.286,-19.000,-16.000,31.000,88.074,88.806,3.723,0.73,-1.24,-0.19
0.466,-0.804,0.055,-19.000,-16.000,31.000,55.298,71.960,-6.592,0.73,-1.24,-0.21
0.466,-1.038,0.146,-20.000,-20.000,34.000,50.415,48.828,-5.554,0.73,-1.24,-0.22
0.404,-1.122,0.477,-20.000,-20.000,34.000,74.524,54.504,17.090,0.73,-1.23,-0.23
0.391,-1.081,0.564,-20.000,-20.000,34.000,79.529,72.449,31.921,0.74,-1.23,-0.24
0.432,-0.823,0.304,-20.000,-20.000,34.000,79.285,113.037,58.899,0.76,-1.23,-0.26
0.523,-0.672,-0.015,-20.000,-20.000,34.000,68.115,128.357,55.725,0.77,-1.24,-0.29
0.561,-0.759,-0.172,-22.000,-28.000,28.000,67.566,108.276,36.438,0.78,-1.24,-0.31
0.569,-0.875,-0.154,-22.000,-28.000,28.000,80.566,75.012,28.809,0.79,-1.24,-0.33
0.575,-0.946,-0.053,-22.000,-28.000,28.000,93.323,49.866,34.363,0.80,-1.23,-0.33
0.575,-0.916,-0.032,-22.000,-28.000,28.000,95.642,38.025,47.363,0.80,-1.22,-0.34
0.600,-0.923,0.041,-22.000,-28.000,28.000,77.576,36.743,52.673,0.81,-1.21,-0.34
0.600,-0.982,0.039,-24.000,-34.000,21.000,62.134,45.776,63.049,0.82,-1.20,-0.35
0.602,-1.004,-0.121,-24.000,-34.000,21.000,61.279,48.401,70.679,0.84,-1.20,-0.36
0.599,-0.981,-0.261,-24.000,-34.000,21.000,73.120,45.349,88.501,0.85,-1.19,-0.36
0.595,-0.828,-0.349,-24.000,-34.000,21.000,79.346,36.865,109.253,0.87,-1.17,-0.36
0.648,-0.710,-0.406,-24.000,-34.000,21.000,68.848,23.132,120.605,0.89,-1.16,-0.35
0.701,-0.659,-0.368,-24.000,-34.000,21.000,75.684,1.770,120.239,0.90,-1.14,-0.34
0.697,-0.631,-0.317,-22.000,-38.000,12.000,96.619,-16.174,117.187,0.92,-1.11,-0.32
0.683,-0.638,-0.250,-22.000,-38.000,12.000,90.942,-18.188,118.286,0.93,-1.08,-0.31
0.721,-0.587,-0.307,-22.000,-38.000,12.000,75.745,-16.174,128.784,0.95,-1.05,-0.28
0.730,-0.387,-0.412,-22.000,-38.000,12.000,78.979,-31.738,126.526,0.97,-1.02,-0.26
0.754,-0.318,-0.369,-22.000,-38.000,12.000,78.369,-42.236,118.652,0.98,-0.98,-0.23
0.752,-0.319,-0.234,-14.000,-44.000,14.000,74.158,-56.335,103.821,0.99,-0.94,-0.20
0.628,-0.652,-0.060,-14.000,-44.000,14.000,57.373,-54.321,97.900,0.99,-0.91,-0.17
0.686,-0.374,-0.242,-14.000,-44.000,14.000,49.072,-34.180,137.024,1.01,-0.87,-0.14
0.766,-0.298,-0.286,-14.000,-44.000,14.000,68.115,-41.199,149.719,1.02,-0.83,-0.10
0.778,-0.098,-0.212,-14.000,-44.000,14.000,84.778,-57.251,156.372,1.03,-0.77,-0.05
0.808,0.036,-0.163,-7.000,-49.000,17.000,106.384,-73.303,137.024,1.04,-0.71,0.00
0.806,-0.119,-0.082,-7.000,-49.000,17.000,102.173,-78.186,110.107,1.04,-0.66,0.05
0.738,-0.370,-0.145,-7.000,-49.000,17.000,130.432,-82.214,131.226,1.04,-0.59,0.10
0.718,-0.206,-0.168,-7.000,-49.000,17.000,182.434,-98.755,169.434,1.04,-0.51,0.16
0.845,0.240,-0.029,-7.000,-49.000,17.000,175.598,-107.056,173.706,1.03,-0.42,0.23
0.949,0.416,0.324,-3.000,-46.000,15.000,126.526,-115.662,144.409,1.03,-0.35,0.29
0.940,0.304,0.349,-3.000,-46.000,15.000,68.054,-78.552,97.778,1.02,-0.30,0.32
0.817,0.175,0.000,-3.000,-46.000,15.000,49.561,-41.138,71.655,1.01,-0.27,0.35
0.813,0.237,-0.145,-3.000,-46.000,15.000,51.025,-60.303,68.420,1.01,-0.24,0.38
0.829,0.203,-0.157,-3.000,-46.000,15.000,36.987,-94.421,67.139,0.99,-0.21,0.40
0.917,0.186,-0.102,-3.000,-46.000,15.000,50.537,-131.042,77.576,0.97,-0.18,0.43
0.846,0.208,0.120,1.000,-42.000,18.000,70.190,-162.476,92.712,0.95,-0.14,0.47
0.801,0.446,0.440,1.000,-42.000,18.000,71.167,-165.955,94.360,0.92,-0.10,0.50
0.782,0.491,0.371,1.000,-42.000,18.000,49.805,-142.151,67.200,0.90,-0.07,0.52
0.713,0.318,0.166,1.000,-42.000,18.000,27.100,-135.925,37.109,0.87,-0.06,0.54
0.641,0.277,0.302,1.000,-42.000,18.000,24.170,-173.706,36.682,0.84,-0.04,0.55
0.616,0.252,0.575,0.000,-36.000,31.000,22.705,-197.632,41.931,0.81,-0.03,0.56
0.623,0.269,0.698,0.000,-36.000,31.000,13.794,-192.322,46.021,0.78,-0.02,0.57
0.624,0.334,0.891,0.000,-36.000,31.000,8.667,-163.513,38.208,0.75,-0.01,0.58
0.579,0.248,0.929,0.000,-36.000,31.000,13.977,-135.864,30.884,0.72,-0.00,0.59
0.540,0.208,0.904,0.000,-36.000,31.000,19.470,-126.343,34.302,0.70,0.01,0.60
0.523,0.310,0.828,3.000,-26.000,40.000,25.208,-111.328,41.077,0.68,0.02,0.61
0.453,0.297,0.737,3.000,-26.000,40.000,19.226,-105.164,36.011,0.66,0.03,0.62
0.410,0.244,0.770,3.000,-26.000,40.000,23.437,-115.112,34.729,0.64,0.03,0.62
0.427,0.290,0.849,3.000,-26.000,40.000,35.339,-125.183,41.382,0.62,0.04,0.63
0.458,0.437,1.035,3.000,-26.000,40.000,32.349,-116.150,31.616,0.60,0.05,0.64
0.404,0.444,1.088,3.000,-26.000,40.000,23.071,-93.872,11.108,0.58,0.06,0.64
0.342,0.389,1.017,1.000,-19.000,43.000,23.071,-84.839,4.150,0.56,0.06,0.64
0.307,0.378,0.980,1.000,-19.000,43.000,21.667,-77.820,-4.578,0.55,0.07,0.64
0.321,0.384,1.019,1.000,-19.000,43.000,14.465,-76.660,-12.146,0.53,0.07,0.63
0.396,0.384,1.114,1.000,-19.000,43.000,12.451,-75.134,-19.653,0.52,0.07,0.63
0.413,0.333,1.209,1.000,-19.000,43.000,18.311,-69.031,-23.437,0.51,0.07,0.62
0.367,0.207,1.432,0.000,-15.000,40.000,26.733,-38.940,-14.038,0.50,0.07,0.62
0.313,0.214,1.512,0.000,-15.000,40.000,29.907,15.686,-3.235,0.50,0.08,0.62
0.286,0.328,1.221,0.000,-15.000,40.000,28.992,40.344,-2.197,0.51,0.08,0.62
0.319,0.397,1.027,0.000,-15.000,40.000,16.418,59.326,-11.719,0.51,0.09,0.62
0.420,0.307,1.170,0.000,-15.000,40.000,-10.193,55.603,-30.579,0.52,0.08,0.62
0.431,0.131,1.251,-2.000,-18.000,38.000,-14.343,68.970,-37.903,0.53,0.08,0.61
0.397,0.057,1.240,-2.000,-18.000,38.000,-0.977,95.642,-25.513,0.55,0.07,0.61
0.324,0.005,1.164,-2.000,-18.000,38.000,7.812,126.160,1.160,0.57,0.08,0.61
0.299,0.164,1.007,-2.000,-18.000,38.000,10.742,148.560,14.709,0.59,0.08,0.61
0.360,0.169,0.996,-2.000,-18.000,38.000,11.902,153.076,20.142,0.61,0.09,0.62
0.466,0.272,1.103,-2.000,-18.000,38.000,4.272,168.945,29.053,0.64,0.09,0.63
0.495,0.260,1.026,0.000,-29.000,38.000,-14.099,198.547,25.269,0.67,0.10,0.64
0.436,0.312,0.833,0.000,-29.000,38.000,-15.747,225.220,21.973,0.71,0.10,0.65
0.415,0.267,0.752,0.000,-29.000,38.000,-26.855,240.662,9.949,0.74,0.10,0.66
0.435,0.102,0.693,0.000,-29.000,38.000,-15.320,256.287,18.311,0.79,0.11,0.67
0.485,0.229,0.563,0.000,-29.000,38.000,-4.517,276.917,31.982,0.83,0.12,0.68
0.512,0.345,0.291,0.000,-43.000,21.000,-10.071,284.729,29.175,0.88,0.13,0.70
0.492,0.284,0.025,0.000,-43.000,21.000,-24.963,281.250,12.207,0.92,0.14,0.71
0.581,0.270,-0.159,0.000,-43.000,21.000,-23.071,255.554,2.625,0.96,0.14,0.73
0.704,0.320,-0.163,0.000,-43.000,21.000,-5.432,225.647,1.770,1.00,0.15,0.74
0.743,0.355,-0.182,0.000,-43.000,21.000,2.319,210.510,2.502,1.03,0.16,0.75
0.785,0.395,-0.266,1.000,-48.000,10.000,0.916,198.120,1.343,1.07,0.18,0.76
0.800,0.407,-0.295,1.000,-48.000,10.000,8.362,188.232,-1.892,1.10,0.19,0.78
0.806,0.429,-0.273,1.000,-48.000,10.000,15.259,183.899,-4.395,1.13,0.21,0.79
0.811,0.472,-0.295,1.000,-48.000,10.000,19.775,179.199,-12.207,1.16,0.22,0.80
0.799,0.462,-0.401,1.000,-48.000,10.000,11.902,177.734,-22.949,1.19,0.23,0.81
0.741,0.402,-0.547,1.000,-48.000,10.000,-1.221,178.162,-32.593,1.22,0.24,0.82
0.711,0.325,-0.633,1.000,-49.000,-5.000,-9.766,174.744,-40.833,1.25,0.24,0.82
0.714,0.159,-0.718,1.000,-49.000,-5.000,-5.188,146.179,-34.729,1.27,0.24,0.83
0.795,0.201,-0.423,1.000,-49.000,-5.000,10.132,125.183,-24.902,1.30,0.25,0.83
0.740,0.330,-0.287,1.000,-49.000,-5.000,10.437,134.094,-24.536,1.32,0.26,0.84
0.617,0.361,-0.740,1.000,-49.000,-5.000,-11.963,170.166,-33.020,1.35,0.27,0.85
0.600,0.243,-1.148,-2.000,-44.000,-17.000,-25.391,169.861,-40.100,1.38,0.27,0.86
0.636,0.183,-1.097,-2.000,-44.000,-17.000,-29.297,113.647,-37.720,1.40,0.27,0.86
0.655,0.140,-0.739,-2.000,-44.000,-17.000,-27.893,64.026,-36.621,1.41,0.25,0.84
0.654,0.113,-0.568,-2.000,-44.000,-17.000,-17.456,62.500,-34.180,1.43,0.23,0.83
0.617,0.108,-0.530,-2.000,-44.000,-17.000,-10.193,90.088,-27.954,1.44,0.22,0.82
0.562,0.155,-0.804,-5.000,-41.000,-21.000,-16.663,102.112,-24.170,1.46,0.22,0.82
0.562,0.128,-1.024,-5.000,-41.000,-21.000,-13.367,81.055,-20.935,1.48,0.22,0.83
0.637,0.208,-0.994,-5.000,-41.000,-21.000,-12.451,64.209,-17.212,1.49,0.22,0.83
0.694,0.348,-0.780,-5.000,-41.000,-21.000,-25.269,36.011,-21.118,1.50,0.20,0.81
0.657,0.241,-0.650,-5.000,-41.000,-21.000,-35.461,34.180,-40.527,1.50,0.12,0.73
0.650,0.156,-0.661,-5.000,-41.000,-21.000,-30.273,50.842,-47.363,1.51,-0.00,0.62
0.740,0.066,-0.665,-9.000,-40.000,-21.000,-13.733,67.627,-46.204,1.53,-0.18,0.45
0.657,0.234,-0.665,-9.000,-40.000,-21.000,4.395,81.665,-37.964,1.54,-0.44,0.18
0.612,0.319,-0.747,-9.000,-40.000,-21.000,-10.010,94.482,-51.025,1.55,-1.06,-0.43
0.564,0.429,-1.097,-9.000,-40.000,-21.000,-42.358,86.060,-79.529,1.54,-1.68,-1.05
0.523,0.419,-1.229,-9.000,-40.000,-21.000,-106.934,49.622,-117.126,1.51,-1.83,-1.18
0.469,0.044,-0.892,-14.000,-36.000,-22.000,-135.925,33.264,-141.479,1.49,-1.86,-1.19
0.500,-0.342,-0.746,-14.000,-36.000,-22.000,-99.182,46.692,-125.427,1.47,-1.90,-1.21
0.543,-0.439,-0.773,-14.000,-36.000,-22.000,-78.125,52.490,-108.337,1.45,-1.94,-1.24
0.520,-0.330,-0.782,-14.000,-36.000,-22.000,-36.072,64.087,-76.416,1.43,-1.99,-1.28
0.446,-0.141,-1.097,-14.000,-36.000,-22.000,-7.507,85.876,-65.430,1.41,-2.06,-1.35
0.422,-0.252,-1.102,-19.000,-24.000,-25.000,-13.794,79.956,-70.496,1.39,-2.10,-1.39
0.428,-0.200,-1.200,-19.000,-24.000,-25.000,-13.062,72.510,-66.772,1.38,-2.13,-1.42
0.423,-0.168,-1.345,-19.000,-24.000,-25.000,-30.762,55.115,-71.106,1.36,-2.15,-1.43
0.411,-0.404,-1.195,-19.000,-24.000,-25.000,-76.111,30.457,-73.669,1.35,-2.16,-1.43
0.395,-0.399,-1.238,-19.000,-24.000,-25.000,-64.209,22.461,-58.777,1.33,-2.16,-1.42
0.355,-0.275,-1.411,-25.000,-23.000,-27.000,-45.959,-7.141,-61.890,1.32,-2.15,-1.40
0.354,-0.273,-1.360,-25.000,-23.000,-27.000,-46.448,-41.687,-71.655,1.32,-2.11,-1.35
0.262,-0.272,-1.254,-25.000,-23.000,-27.000,-56.396,-61.096,-87.830,1.31,-2.07,-1.30
0.210,-0.551,-1.040,-25.000,-23.000,-27.000,-51.147,-51.025,-94.055,1.30,-2.03,-1.24
0.263,-0.892,-1.240,-25.000,-23.000,-27.000,-5.310,-39.246,-48.035,1.29,-2.00,-1.21
0.243,-0.686,-1.492,-25.000,-20.000,-26.000,-0.671,-46.875,-16.235,1.29,-1.97,-1.19
0.048,-0.529,-1.657,-25.000,-20.000,-26.000,-27.039,-79.041,16.907,1.30,-1.95,-1.15
-0.077,-0.489,-2.173,-25.000,-20.000,-26.000,-49.255,-121.338,26.733,1.31,-1.90,-1.09
-0.163,-0.410,-1.984,-25.000,-20.000,-26.000,-116.943,-219.177,46.570,1.32,-1.80,-0.97
-0.021,-0.537,-0.780,-25.000,-20.000,-26.000,-161.865,-334.167,65.369,1.34,-1.61,-0.75
0.287,-0.349,0.073,-26.000,-32.000,-11.000,-108.948,-352.173,66.772,1.34,-1.37,-0.48
0.502,-0.391,-0.012,-26.000,-32.000,-11.000,-91.431,-259.277,31.067,1.34,-1.20,-0.29
0.519,-0.484,-0.396,-26.000,-32.000,-11.000,-73.853,-189.026,22.461,1.33,-1.09,-0.17
0.527,-0.426,-0.438,-26.000,-32.000,-11.000,-51.941,-188.477,33.569,1.31,-0.99,-0.05
0.556,-0.533,-0.228,-26.000,-32.000,-11.000,-41.260,-188.721,31.616,1.30,-0.89,0.06
0.579,-0.679,-0.096,-26.000,-32.000,-11.000,-36.133,-163.818,48.889,1.29,-0.81,0.15
0.569,-0.654,-0.223,-28.000,-33.000,5.000,-47.668,-138.062,63.904,1.28,-0.74,0.23
0.523,-0.635,-0.459,-28.000,-33.000,5.000,-30.457,-138.062,83.008,1.27,-0.67,0.31
0.510,-0.685,-0.482,-28.000,-33.000,5.000,-8.545,-151.367,96.985,1.26,-0.58,0.40
0.514,-0.489,-0.413,-28.000,-33.000,5.000,-19.897,-184.387,128.845,1.24,-0.49,0.50
0.543,-0.283,-0.105,-28.000,-33.000,5.000,-47.852,-222.595,130.920,1.22,-0.40,0.61
0.632,-0.135,0.120,-21.000,-37.000,17.000,-54.443,-234.009,114.380,1.18,-0.33,0.70
0.656,-0.114,0.151,-21.000,-37.000,17.000,-81.543,-223.755,98.145,1.15,-0.28,0.76
0.684,-0.151,0.269,-21.000,-37.000,17.000,-72.021,-222.839,93.384,1.12,-0.24,0.82
0.673,-0.124,0.317,-21.000,-37.000,17.000,-52.063,-215.210,91.919,1.09,-0.20,0.87
0.667,-0.091,0.417,-21.000,-37.000,17.000,-47.119,-200.684,79.956,1.06,-0.17,0.91
0.630,-0.092,0.356,-16.000,-34.000,30.000,-50.171,-185.059,67.749,1.03,-0.15,0.95
0.584,-0.075,0.307,-16.000,-34.000,30.000,-50.781,-185.913,64.331,1.00,-0.14,0.97
0.540,0.089,0.343,-16.000,-34.000,30.000,-34.424,-192.078,62.134,0.96,-0.12,1.00
0.534,0.224,0.407,-16.000,-34.000,30.000,-45.227,-202.942,43.579,0.93,-0.11,1.02
0.490,0.209,0.587,-16.000,-34.000,30.000,-74.036,-214.294,14.587,0.89,-0.12,1.03
0.488,0.043,0.785,-10.000,-20.000,38.000,-76.355,-214.905,-5.737,0.86,-0.12,1.04
0.469,-0.009,1.064,-10.000,-20.000,38.000,-48.950,-200.134,-0.061,0.82,-0.13,1.04
0.481,-0.008,1.151,-10.000,-20.000,38.000,-33.997,-158.997,7.385,0.79,-0.13,1.05
0.482,-0.038,1.103,-10.000,-20.000,38.000,-25.391,-121.765,13.184,0.77,-0.13,1.06
0.472,-0.051,0.960,-10.000,-20.000,38.000,-12.573,-105.041,24.902,0.75,-0.12,1.07
0.416,-0.002,0.833,-10.000,-20.000,38.000,-8.545,-104.004,34.607,0.74,-0.12,1.08
0.367,0.031,0.754,-9.000,-15.000,37.000,-12.756,-107.483,34.424,0.72,-0.11,1.09
0.316,0.028,0.672,-9.000,-15.000,37.000,-23.193,-117.065,29.846,0.70,-0.11,1.10
0.254,-0.079,0.654,-9.000,-15.000,37.000,-35.400,-132.080,27.954,0.67,-0.11,1.11
0.190,-0.104,0.742,-9.000,-15.000,37.000,-25.391,-151.062,47.424,0.65,-0.11,1.12
0.135,0.010,0.791,-9.000,-15.000,37.000,-10.193,-166.382,69.824,0.62,-0.10,1.14
0.103,0.040,0.837,-8.000,-4.000,46.000,-18.433,-180.542,79.224,0.59,-0.09,1.16
0.031,0.084,0.897,-8.000,-4.000,46.000,-26.367,-183.655,82.458,0.56,-0.08,1.18
-0.022,0.137,0.896,-8.000,-4.000,46.000,-26.428,-183.838,81.543,0.53,-0.08,1.20
-0.063,0.266,0.868,-8.000,-4.000,46.000,-34.546,-191.162,72.021,0.49,-0.07,1.21
-0.146,0.359,0.915,-8.000,-4.000,46.000,-39.307,-195.740,63.171,0.46,-0.07,1.23
-0.225,0.366,0.997,-8.000,6.000,41.000,-36.865,-198.975,46.387,0.43,-0.07,1.24
-0.245,0.420,1.057,-8.000,6.000,41.000,-18.433,-191.284,34.302,0.40,-0.07,1.25
-0.281,0.427,1.070,-8.000,6.000,41.000,-7.690,-175.720,16.052,0.37,-0.06,1.26
-0.359,0.468,1.033,-8.000,6.000,41.000,-4.944,-159.424,-6.653,0.34,-0.06,1.26
-0.400,0.474,1.006,-8.000,6.000,41.000,-0.488,-147.339,-34.424,0.31,-0.06,1.25
-0.461,0.537,0.924,-6.000,16.000,29.000,7.141,-142.639,-63.599,0.29,-0.06,1.25
-0.525,0.442,0.990,-6.000,16.000,29.000,6.897,-141.968,-95.398,0.27,-0.06,1.23
-0.603,0.240,1.152,-6.000,16.000,29.000,13.245,-124.268,-105.896,0.25,-0.06,1.21
-0.677,0.048,1.118,-6.000,16.000,29.000,14.893,-108.704,-104.858,0.23,-0.06,1.20
-0.676,0.018,0.913,-6.000,16.000,29.000,21.423,-86.060,-87.646,0.21,-0.06,1.18
-0.645,0.254,0.885,-6.000,16.000,29.000,27.039,-85.205,-68.298,0.20,-0.06,1.17
-0.651,0.328,0.962,-1.000,24.000,26.000,18.311,-83.496,-76.660,0.19,-0.06,1.16
-0.699,0.322,0.909,-1.000,24.000,26.000,13.428,-69.092,-85.815,0.18,-0.06,1.15
-0.696,0.305,0.824,-1.000,24.000,26.000,19.653,-58.899,-86.609,0.17,-0.06,1.13
-0.691,0.349,0.869,-1.000,24.000,26.000,18.616,-63.293,-86.548,0.16,-0.05,1.12
-0.633,0.370,1.044,-1.000,24.000,26.000,9.949,-51.086,-101.685,0.15,-0.05,1.10
-0.632,0.278,1.024,2.000,29.000,25.000,12.634,-42.908,-101.562,0.14,-0.05,1.09
-0.700,0.335,0.971,2.000,29.000,25.000,13.977,-18.311,-96.741,0.14,-0.05,1.07
-0.657,0.252,0.857,2.000,29.000,25.000,18.555,7.690,-93.750,0.14,-0.05,1.05
-0.543,0.295,0.618,2.000,29.000,25.000,19.348,25.269,-81.116,0.15,-0.05,1.04
-0.510,0.128,0.604,2.000,29.000,25.000,2.563,10.864,-78.796,0.15,-0.05,1.03
-0.536,0.069,0.824,4.000,29.000,23.000,16.235,-9.155,-55.664,0.15,-0.05,1.02
-0.583,0.318,1.131,4.000,29.000,23.000,34.546,25.269,-39.551,0.16,-0.04,1.01
-0.583,0.368,0.827,4.000,29.000,23.000,39.063,42.603,-40.100,0.16,-0.03,1.00
-0.490,0.284,0.642,4.000,29.000,23.000,38.452,37.048,-41.687,0.17,-0.03,1.00
-0.449,0.533,0.637,4.000,29.000,23.000,41.260,20.203,-37.415,0.18,-0.02,0.99
-0.433,0.389,0.717,4.000,29.000,23.000,29.724,2.808,-58.350,0.18,-0.01,0.98
-0.437,0.062,0.976,6.000,28.000,21.000,39.490,-8.606,-57.129,0.18,-0.01,0.97
-0.440,0.179,0.968,6.000,28.000,21.000,65.735,11.658,-27.405,0.18,0.00,0.97
-0.418,0.390,0.817,6.000,28.000,21.000,49.866,15.869,-32.593,0.19,0.01,0.96
-0.433,0.519,0.825,6.000,28.000,21.000,26.062,11.902,-58.289,0.19,0.02,0.95
-0.443,0.313,0.877,6.000,28.000,21.000,21.545,10.010,-69.641,0.19,0.02,0.94
-0.476,0.204,0.904,9.000,26.000,25.000,34.363,11.780,-65.430,0.20,0.02,0.93
-0.494,0.117,0.913,9.000,26.000,25.000,41.016,15.259,-53.162,0.20,0.03,0.92
-0.464,0.189,0.936,9.000,26.000,25.000,41.870,19.409,-37.109,0.20,0.03,0.91
-0.443,0.253,0.928,9.000,26.000,25.000,52.979,22.339,-29.236,0.21,0.04,0.91
-0.380,0.424,0.949,9.000,26.000,25.000,65.247,25.146,-34.119,0.22,0.06,0.90
-0.361,0.468,1.123,8.000,26.000,27.000,58.472,47.913,-53.040,0.22,0.07,0.90
-0.373,0.336,1.035,8.000,26.000,27.000,48.767,63.538,-63.538,0.24,0.07,0.89
-0.367,0.145,0.859,8.000,26.000,27.000,29.114,77.515,-76.172,0.25,0.08,0.87
-0.310,0.145,0.840,8.000,26.000,27.000,23.376,70.190,-71.899,0.27,0.08,0.86
-0.248,0.245,0.942,8.000,26.000,27.000,23.743,63.782,-64.392,0.28,0.08,0.85
-0.234,0.280,0.974,8.000,26.000,27.000,28.748,67.200,-64.575,0.29,0.09,0.84
-0.232,0.215,0.980,9.000,23.000,38.000,36.499,69.580,-69.031,0.30,0.09,0.83
-0.219,0.195,0.991,9.000,23.000,38.000,42.908,67.749,-66.162,0.31,0.10,0.82
-0.171,0.422,1.081,9.000,23.000,38.000,46.265,69.885,-68.237,0.32,0.10,0.81
-0.184,0.513,1.236,9.000,23.000,38.000,47.058,88.867,-88.867,0.34,0.11,0.80
-0.253,0.240,1.221,9.000,23.000,38.000,55.542,133.850,-111.145,0.36,0.11,0.78
-0.249,-0.007,0.990,12.000,13.000,37.000,80.383,164.612,-102.112,0.39,0.12,0.77
-0.210,-0.010,0.958,12.000,13.000,37.000,92.651,155.151,-76.660,0.42,0.13,0.76
-0.097,0.173,1.031,12.000,13.000,37.000,92.468,150.452,-68.054,0.44,0.14,0.75
-0.031,0.380,1.171,12.000,13.000,37.000,75.012,170.898,-93.567,0.47,0.15,0.74
-0.056,0.085,1.149,12.000,13.000,37.000,67.749,186.523,-110.535,0.50,0.15,0.72
-0.022,-0.339,0.869,5.000,1.000,45.000,79.529,202.820,-110.291,0.54,0.16,0.70
0.116,-0.454,0.643,5.000,1.000,45.000,101.562,179.260,-66.650,0.57,0.17,0.70
0.283,-0.056,0.882,5.000,1.000,45.000,105.957,131.531,-18.738,0.59,0.19,0.70
0.327,0.138,0.999,5.000,1.000,45.000,79.102,133.484,-26.611,0.61,0.20,0.70
0.315,0.154,1.066,5.000,1.000,45.000,54.749,157.654,-67.078,0.64,0.20,0.69
0.257,-0.211,0.989,5.000,1.000,45.000,56.702,178.345,-84.961,0.67,0.21,0.68
0.284,-0.549,0.600,2.000,-10.000,41.000,63.660,180.176,-77.271,0.70,0.21,0.67
0.390,-0.484,0.570,2.000,-10.000,41.000,69.824,148.682,-33.508,0.72,0.22,0.67
0.516,-0.024,0.755,2.000,-10.000,41.000,76.843,124.939,1.343,0.74,0.24,0.68
0.537,0.030,0.788,2.000,-10.000,41.000,59.387,139.709,-20.447,0.76,0.25,0.68
0.524,-0.140,0.802,2.000,-10.000,41.000,53.345,155.334,-48.096,0.79,0.26,0.68
0.541,-0.436,0.674,-3.000,-22.000,41.000,78.857,169.495,-40.710,0.82,0.27,0.68
0.622,-0.424,0.373,-3.000,-22.000,41.000,90.393,150.208,-12.634,0.84,0.29,0.68
0.686,-0.165,0.498,-3.000,-22.000,41.000,81.848,135.803,-2.563,0.86,0.31,0.69
0.733,-0.028,0.292,-3.000,-22.000,41.000,74.524,145.935,-9.521,0.89,0.33,0.70
0.728,-0.298,0.252,-3.000,-22.000,41.000,66.223,131.958,-33.020,0.91,0.34,0.70
0.715,-0.492,0.294,-9.000,-30.000,33.000,70.679,112.366,-31.860,0.93,0.35,0.70
0.736,-0.496,0.264,-9.000,-30.000,33.000,79.285,106.262,-17.273,0.94,0.37,0.71
0.746,-0.497,0.249,-9.000,-30.000,33.000,83.069,100.586,-5.676,0.96,0.39,0.72
0.770,-0.465,0.172,-9.000,-30.000,33.000,86.060,97.168,6.104,0.97,0.41,0.73
0.807,-0.424,0.016,-9.000,-30.000,33.000,88.745,88.135,13.245,0.99,0.44,0.74
0.846,-0.432,-0.062,-9.000,-30.000,33.000,89.539,77.759,15.564,1.00,0.47,0.76
0.856,-0.532,-0.068,-13.000,-34.000,27.000,90.881,55.908,20.020,1.00,0.49,0.77
0.858,-0.619,-0.200,-13.000,-34.000,27.000,107.361,36.560,32.288,1.00,0.52,0.78
0.903,-0.525,-0.174,-13.000,-34.000,27.000,131.287,1.648,52.856,1.00,0.55,0.80
0.959,-0.374,-0.023,-13.000,-34.000,27.000,106.018,-23.743,64.270,0.99,0.58,0.81
1.065,-0.122,0.270,-13.000,-34.000,27.000,35.461,-3.906,47.913,0.98,0.60,0.82
1.049,-0.184,0.249,-13.000,-40.000,20.000,-15.503,31.860,25.452,0.99,0.60,0.83
0.966,-0.386,0.235,-13.000,-40.000,20.000,-25.940,44.312,20.264,0.99,0.61,0.84
0.922,-0.505,0.037,-13.000,-40.000,20.000,2.380,64.575,25.024,1.00,0.62,0.86
0.887,-0.555,-0.061,-13.000,-40.000,20.000,91.431,54.138,45.776,1.00,0.66,0.88
0.889,-0.418,0.021,-13.000,-40.000,20.000,143.616,29.053,70.740,0.99,0.70,0.90
0.898,-0.218,0.187,-14.000,-40.000,19.000,131.958,20.874,81.116,0.99,0.74,0.93
0.897,-0.156,0.174,-14.000,-40.000,19.000,102.173,37.903,73.303,0.98,0.78,0.95
0.878,-0.201,0.149,-14.000,-40.000,19.000,103.943,55.664,65.674,0.98,0.81,0.97
0.869,-0.296,0.136,-14.000,-40.000,19.000,136.658,73.242,75.500,0.98,0.86,1.01
0.887,-0.205,0.137,-14.000,-40.000,19.000,181.152,82.581,88.318,0.98,0.92,1.04
0.904,-0.087,0.113,-14.000,-40.000,19.000,197.815,87.585,90.515,0.97,0.99,1.08
0.902,-0.075,0.090,-11.000,-46.000,4.000,204.102,93.689,90.637,0.97,1.05,1.12
0.902,0.017,0.096,-11.000,-46.000,4.000,199.463,101.929,96.191,0.96,1.12,1.16
0.893,0.054,-0.051,-11.000,-46.000,4.000,200.806,117.126,97.107,0.95,1.19,1.20
0.883,0.055,-0.131,-11.000,-46.000,4.000,176.514,123.413,99.609,0.94,1.25,1.24
0.843,0.152,-0.202,-11.000,-46.000,4.000,151.672,123.352,101.624,0.93,1.31,1.28
0.860,0.321,-0.349,-5.000,-49.000,-4.000,120.789,113.037,88.196,0.92,1.36,1.32
0.880,0.307,-0.301,-5.000,-49.000,-4.000,92.468,104.492,77.820,0.91,1.40,1.35
0.857,0.182,-0.192,-5.000,-49.000,-4.000,58.289,103.638,62.927,0.90,1.44,1.38
0.806,0.153,-0.251,-5.000,-49.000,-4.000,63.965,122.192,64.697,0.89,1.48,1.42
0.767,0.254,-0.339,-5.000,-49.000,-4.000,77.271,140.442,72.876,0.88,1.52,1.46
0.729,0.426,-0.491,0.000,-47.000,-14.000,84.473,156.677,75.745,0.87,1.57,1.50
0.731,0.416,-0.594,0.000,-47.000,-14.000,83.740,158.142,66.284,0.85,1.61,1.54
0.706,0.256,-0.718,0.000,-47.000,-14.000,69.031,136.475,67.566,0.84,1.65,1.58
0.645,0.270,-0.436,0.000,-47.000,-14.000,61.218,128.418,70.740,0.82,1.68,1.61
0.559,0.194,-0.347,0.000,-47.000,-14.000,75.500,141.174,73.364,0.81,1.72,1.64
0.443,0.242,-0.616,0.000,-47.000,-14.000,110.657,172.913,95.337,0.79,1.77,1.68
0.379,0.510,-0.886,9.000,-39.000,-26.000,115.906,184.570,124.084,0.76,1.81,1.72
0.404,0.752,-0.992,9.000,-39.000,-26.000,100.830,162.476,125.122,0.73,1.85,1.75
0.389,0.765,-0.738,9.000,-39.000,-26.000,75.317,118.774,97.168,0.71,1.88,1.77
0.353,0.691,-0.623,9.000,-39.000,-26.000,67.078,110.535,73.608,0.69,1.90,1.78
0.278,0.588,-0.682,9.000,-39.000,-26.000,67.566,123.718,72.937,0.67,1.93,1.80
0.241,0.568,-0.858,17.000,-32.000,-32.000,53.284,116.272,82.520,0.65,1.95,1.82
0.221,0.609,-0.817,17.000,-32.000,-32.000,45.837,106.445,85.571,0.62,1.97,1.84
0.184,0.614,-0.571,17.000,-32.000,-32.000,35.095,91.003,89.111,0.60,1.98,1.85
0.114,0.684,-0.509,17.000,-32.000,-32.000,43.030,101.685,93.384,0.58,1.99,1.86
0.046,0.756,-0.719,17.000,-32.000,-32.000,52.551,119.507,92.712,0.55,2.01,1.87
0.039,0.766,-0.792,23.000,-25.000,-31.000,50.720,114.868,88.867,0.53,2.03,1.89
0.025,0.797,-0.753,23.000,-25.000,-31.000,49.133,100.159,79.773,0.51,2.04,1.90
0.004,0.710,-0.590,23.000,-25.000,-31.000,50.171,93.750,70.801,0.49,2.05,1.91
-0.059,0.639,-0.462,23.000,-25.000,-31.000,48.645,95.825,73.792,0.47,2.07,1.92
-0.164,0.740,-0.526,23.000,-25.000,-31.000,42.419,107.971,85.693,0.45,2.08,1.93
-0.195,0.773,-0.715,23.000,-25.000,-31.000,46.143,114.990,89.539,0.42,2.09,1.94
-0.224,0.866,-0.708,28.000,-15.000,-35.000,48.706,103.882,90.332,0.40,2.11,1.95
-0.196,0.960,-0.736,28.000,-15.000,-35.000,41.626,91.431,84.717,0.38,2.12,1.95
-0.152,0.916,-0.645,28.000,-15.000,-35.000,33.386,73.059,69.153,0.36,2.12,1.96
-0.178,0.835,-0.372,28.000,-15.000,-35.000,35.828,78.491,54.932,0.34,2.13,1.97
-0.277,0.829,-0.343,28.000,-15.000,-35.000,38.879,97.473,46.692,0.33,2.14,1.98
-0.304,0.803,-0.507,32.000,-8.000,-36.000,38.025,102.356,44.922,0.31,2.15,1.99
-0.351,0.938,-0.553,32.000,-8.000,-36.000,29.541,99.670,45.532,0.30,2.16,2.00
-0.325,0.969,-0.528,32.000,-8.000,-36.000,24.536,92.590,31.860,0.28,2.16,2.01
-0.329,0.806,-0.389,32.000,-8.000,-36.000,21.301,85.266,16.724,0.27,2.17,2.02
-0.409,0.729,-0.251,32.000,-8.000,-36.000,20.142,90.088,21.545,0.26,2.17,2.03
-0.473,0.770,-0.224,30.000,-2.000,-33.000,23.132,105.957,34.180,0.25,2.18,2.04
-0.567,0.924,-0.376,30.000,-2.000,-33.000,31.372,115.723,34.790,0.23,2.19,2.05
-0.602,1.127,-0.550,30.000,-2.000,-33.000,24.963,101.318,20.630,0.22,2.19,2.06
-0.575,1.125,-0.382,30.000,-2.000,-33.000,22.278,88.135,5.188,0.21,2.20,2.07
-0.647,0.994,-0.182,30.000,-2.000,-33.000,26.733,85.327,-10.864,0.21,2.20,2.09
-0.765,1.344,-0.168,30.000,-2.000,-33.000,18.982,103.577,-5.432,0.20,2.21,2.10
-0.823,1.522,-0.314,32.000,6.000,-28.000,20.752,114.380,-35.522,0.19,2.21,2.12
-0.820,1.399,-0.778,32.000,6.000,-28.000,20.325,114.075,-82.214,0.19,2.22,2.15
-0.777,1.300,-0.840,32.000,6.000,-28.000,-18.372,68.848,-114.868,0.20,2.22,2.17
-0.720,1.026,-0.556,32.000,6.000,-28.000,-61.646,28.137,-123.901,0.22,2.21,2.18
-0.660,0.974,-0.254,32.000,6.000,-28.000,-76.416,15.381,-112.427,0.23,2.20,2.20
-0.623,1.320,-0.190,33.000,0.000,-31.000,-69.031,32.166,-125.488,0.25,2.20,2.21
-0.614,1.351,-0.640,33.000,0.000,-31.000,-72.266,35.828,-146.545,0.27,2.19,2.23
-0.576,1.179,-0.626,33.000,0.000,-31.000,-93.628,9.033,-176.392,0.29,2.18,2.25
-0.514,0.997,-0.511,33.000,0.000,-31.000,-130.554,-21.667,-187.317,0.32,2.16,2.27
-0.435,0.948,-0.484,33.000,0.000,-31.000,-158.020,-45.898,-178.406,0.35,2.13,2.28
-0.383,1.050,-0.499,27.000,-6.000,-38.000,-150.391,-53.650,-171.753,0.38,2.11,2.28
-0.368,1.002,-0.587,27.000,-6.000,-38.000,-144.409,-52.307,-187.073,0.41,2.09,2.29
-0.299,0.822,-0.677,27.000,-6.000,-38.000,-131.165,-67.261,-187.195,0.44,2.07,2.30
-0.230,0.817,-0.668,27.000,-6.000,-38.000,-124.023,-74.951,-184.082,0.47,2.05,2.30
-0.204,0.688,-0.887,27.000,-6.000,-38.000,-149.719,-91.797,-181.152,0.51,2.03,2.30
-0.128,0.673,-1.081,14.000,-20.000,-45.000,-172.729,-115.662,-171.753,0.54,2.00,2.30
-0.036,0.709,-0.782,14.000,-20.000,-45.000,-211.792,-172.668,-155.396,0.57,1.95,2.28
0.085,0.665,-0.355,14.000,-20.000,-45.000,-211.731,-190.002,-153.259,0.61,1.91,2.26
0.166,0.411,-0.206,14.000,-20.000,-45.000,-184.692,-166.443,-159.546,0.64,1.86,2.23
0.212,0.311,-0.625,14.000,-20.000,-45.000,-145.752,-122.864,-147.095,0.67,1.83,2.22
0.170,0.383,-1.309,14.000,-20.000,-45.000,-123.840,-117.676,-131.104,0.69,1.80,2.20
0.138,0.347,-1.532,0.000,-30.000,-38.000,-153.076,-185.486,-125.000,0.72,1.75,2.17
0.155,0.149,-1.307,0.000,-30.000,-38.000,-218.506,-283.508,-101.440,0.74,1.68,2.11
0.296,0.130,-0.054,0.000,-30.000,-38.000,-250.610,-296.204,-74.341,0.76,1.59,2.04
0.491,0.090,0.354,0.000,-30.000,-38.000,-221.436,-247.620,-64.636,0.77,1.51,1.99
0.576,0.109,-0.652,0.000,-30.000,-38.000,-127.075,-134.277,-52.429,0.77,1.47,1.96
0.507,0.013,-1.359,-12.000,-41.000,-20.000,-97.961,-154.541,-50.781,0.78,1.43,1.92
0.499,0.008,-0.900,-12.000,-41.000,-20.000,-138.855,-246.399,-36.011,0.78,1.37,1.86
0.561,0.153,0.104,-12.000,-41.000,-20.000,-213.989,-295.105,-15.747,0.76,1.29,1.80
0.752,0.232,0.637,-12.000,-41.000,-20.000,-218.506,-258.362,-10.498,0.75,1.21,1.74
0.831,0.192,0.524,-12.000,-41.000,-20.000,-124.023,-151.123,-27.466,0.75,1.17,1.70
0.838,0.004,-0.369,-15.000,-43.000,-1.000,-79.590,-104.980,-32.837,0.74,1.14,1.68
0.755,-0.055,-0.973,-15.000,-43.000,-1.000,-84.229,-178.650,-20.264,0.73,1.10,1.64
0.660,-0.046,-0.599,-15.000,-43.000,-1.000,-110.046,-256.042,-9.338,0.71,1.05,1.59
0.646,0.109,0.193,-15.000,-43.000,-1.000,-135.986,-280.029,-5.737,0.69,0.99,1.54
0.699,0.259,0.735,-15.000,-43.000,-1.000,-168.335,-282.043,-9.155,0.66,0.93,1.49
0.815,0.414,0.541,-14.000,-41.000,15.000,-150.940,-208.801,-26.489,0.64,0.88,1.45
0.794,-0.004,0.104,-14.000,-41.000,15.000,-159.607,-150.635,-62.622,0.63,0.83,1.42
0.702,-0.485,0.007,-14.000,-41.000,15.000,-149.475,-164.490,-48.767,0.62,0.79,1.38
0.637,-0.435,0.111,-14.000,-41.000,15.000,-80.017,-201.477,6.042,0.59,0.76,1.36
0.559,-0.089,0.477,-14.000,-41.000,15.000,-50.232,-225.281,26.001,0.56,0.74,1.33
0.624,0.225,0.562,-14.000,-41.000,15.000,-50.781,-203.918,18.127,0.53,0.71,1.30
0.609,0.330,0.398,-11.000,-34.000,32.000,-63.782,-194.885,2.258,0.50,0.69,1.28
0.526,-0.123,0.527,-11.000,-34.000,32.000,-99.060,-195.557,-27.466,0.48,0.66,1.25
0.485,-0.188,0.699,-11.000,-34.000,32.000,-85.388,-194.214,-8.789,0.45,0.64,1.23
0.465,0.028,0.793,-11.000,-34.000,32.000,-58.350,-185.120,10.864,0.43,0.62,1.21
0.445,0.067,0.835,-11.000,-34.000,32.000,-55.298,-171.020,9.399,0.40,0.60,1.19
0.440,0.086,0.851,-8.000,-22.000,41.000,-34.851,-160.461,13.062,0.38,0.59,1.18
0.460,0.026,0.972,-8.000,-22.000,41.000,-15.625,-166.016,25.085,0.35,0.58,1.16
0.435,0.110,1.216,-8.000,-22.000,41.000,-1.526,-156.860,24.414,0.32,0.57,1.15
0.412,0.112,1.405,-8.000,-22.000,41.000,-1.526,-118.774,9.277,0.30,0.57,1.14
0.390,0.095,1.323,-8.000,-22.000,41.000,-0.793,-93.750,5.127,0.29,0.57,1.13
0.390,0.141,1.060,-8.000,-15.000,42.000,-1.282,-56.396,0.488,0.28,0.56,1.13
0.387,0.150,1.057,-8.000,-15.000,42.000,-10.742,-51.331,-6.775,0.27,0.56,1.12
0.363,0.123,1.170,-8.000,-15.000,42.000,-10.498,-45.410,-16.602,0.27,0.56,1.12
0.328,0.024,1.117,-8.000,-15.000,42.000,-9.521,-28.748,-25.818,0.26,0.55,1.11
0.315,0.011,1.091,-8.000,-15.000,42.000,-11.353,-18.250,-20.874,0.26,0.55,1.10
0.305,0.103,1.081,-8.000,-15.000,42.000,-7.385,-7.446,-16.296,0.26,0.54,1.10
0.305,0.225,1.075,-8.000,-11.000,41.000,-15.137,5.981,-25.330,0.26,0.54,1.10
0.304,0.256,1.054,-8.000,-11.000,41.000,-19.653,13.428,-32.349,0.27,0.53,1.09
0.291,0.167,1.055,-8.000,-11.000,41.000,-23.987,25.940,-45.898,0.27,0.53,1.09
0.271,0.019,0.918,-8.000,-11.000,41.000,-23.499,38.025,-51.575,0.28,0.52,1.08
0.281,0.040,0.695,-8.000,-11.000,41.000,-12.268,39.063,-44.006,0.29,0.52,1.08
0.373,0.178,0.520,-7.000,-13.000,41.000,-12.146,27.405,-43.091,0.29,0.51,1.08
0.417,0.191,0.494,-7.000,-13.000,41.000,-24.780,3.052,-60.242,0.30,0.51,1.07
0.469,0.005,0.620,-7.000,-13.000,41.000,-33.691,-16.785,-72.327,0.30,0.50,1.05
0.418,-0.201,0.700,-7.000,-13.000,41.000,-19.897,-27.283,-59.692,0.30,0.49,1.04
0.350,-0.212,0.728,-7.000,-13.000,41.000,7.568,-38.330,-34.424,0.29,0.49,1.03
0.336,-0.027,0.668,-8.000,-9.000,38.000,13.733,-44.678,-25.146,0.29,0.49,1.02
0.362,0.295,0.479,-8.000,-9.000,38.000,5.737,-59.509,-27.954,0.28,0.48,1.02
0.308,0.364,0.323,-8.000,-9.000,38.000,-14.526,-93.506,-60.730,0.27,0.48,1.00
0.260,0.098,0.581,-8.000,-9.000,38.000,-29.114,-165.894,-96.985,0.25,0.46,0.97
0.260,-0.092,0.802,-8.000,-9.000,38.000,-12.451,-210.876,-99.365,0.22,0.45,0.94
0.184,-0.186,1.186,-6.000,4.000,42.000,24.109,-185.181,-71.106,0.20,0.45,0.91
0.140,-0.133,1.345,-6.000,4.000,42.000,36.743,-131.714,-58.472,0.18,0.45,0.89
0.117,-0.150,1.165,-6.000,4.000,42.000,40.405,-93.750,-44.006,0.17,0.45,0.88
0.060,-0.135,1.052,-6.000,4.000,42.000,40.527,-89.478,-40.222,0.16,0.46,0.87
-0.011,-0.111,1.179,-6.000,4.000,42.000,31.006,-103.638,-46.570,0.15,0.46,0.85
0.006,-0.057,1.331,-6.000,4.000,42.000,13.733,-115.967,-64.819,0.14,0.46,0.83
0.059,-0.073,1.344,-9.000,12.000,37.000,-5.432,-100.403,-87.036,0.13,0.45,0.81
-0.011,-0.306,1.271,-9.000,12.000,37.000,-16.235,-77.637,-96.863,0.12,0.44,0.79
-0.045,-0.328,1.330,-9.000,12.000,37.000,0.793,-57.434,-64.392,0.12,0.44,0.78
-0.116,-0.188,1.319,-9.000,12.000,37.000,0.549,-27.466,-37.354,0.12,0.44,0.77
-0.180,-0.144,1.349,-9.000,12.000,37.000,-7.019,-20.447,-29.541,0.12,0.44,0.76
-0.224,-0.094,1.449,-5.000,16.000,32.000,-19.836,-2.014,-31.982,0.12,0.43,0.76
-0.240,-0.133,1.288,-5.000,16.000,32.000,-23.193,2.747,-33.081,0.12,0.42,0.75
-0.214,0.020,1.418,-5.000,16.000,32.000,-4.639,5.188,-20.386,0.12,0.42,0.75
-0.176,0.156,1.411,-5.000,16.000,32.000,0.122,23.254,-17.090,0.13,0.42,0.75
-0.123,0.021,1.456,-5.000,16.000,32.000,-16.113,37.842,-35.095,0.14,0.41,0.75
-0.099,-0.226,1.497,-6.000,15.000,34.000,3.113,53.589,-67.322,0.15,0.41,0.74
-0.029,-0.465,1.560,-6.000,15.000,34.000,51.575,82.153,-1.465,0.16,0.42,0.74
0.027,0.155,1.704,-6.000,15.000,34.000,68.054,132.446,43.335,0.18,0.43,0.76
0.033,0.192,1.380,-6.000,15.000,34.000,62.988,169.800,13.367,0.20,0.44,0.77
0.029,0.008,1.097,-6.000,15.000,34.000,73.914,173.523,19.104,0.23,0.46,0.79
0.071,0.172,0.882,-6.000,15.000,34.000,85.999,166.321,42.603,0.25,0.48,0.81
0.179,0.423,0.949,-9.000,4.000,38.000,43.884,147.949,20.081,0.26,0.49,0.82
0.203,0.403,0.998,-9.000,4.000,38.000,0.366,145.813,-44.983,0.29,0.49,0.83
0.181,0.215,1.191,-9.000,4.000,38.000,-3.601,162.903,-94.238,0.32,0.49,0.83
0.073,0.039,1.213,-9.000,4.000,38.000,5.310,195.435,-118.713,0.36,0.48,0.82
0.052,-0.102,0.817,-9.000,4.000,38.000,16.663,208.618,-122.803,0.39,0.48,0.82
0.133,-0.064,0.564,-9.000,-8.000,37.000,67.993,203.796,-110.840,0.43,0.49,0.82
0.212,0.124,0.524,-9.000,-8.000,37.000,100.708,179.443,-107.849,0.47,0.51,0.82
0.222,-0.097,0.549,-9.000,-8.000,37.000,90.942,151.550,-140.686,0.50,0.52,0.81
0.238,-0.387,0.797,-9.000,-8.000,37.000,81.360,134.338,-149.109,0.53,0.53,0.80
0.267,-0.358,0.975,-9.000,-8.000,37.000,68.726,158.997,-129.028,0.56,0.53,0.79
0.247,-0.241,0.949,-16.000,-15.000,34.000,54.260,201.294,-131.287,0.60,0.54,0.79
0.187,-0.451,0.667,-16.000,-15.000,34.000,70.068,211.365,-135.437,0.64,0.55,0.78
0.195,-0.687,0.381,-16.000,-15.000,34.000,98.145,208.557,-122.620,0.68,0.56,0.78
0.299,-0.486,0.303,-16.000,-15.000,34.000,156.067,179.077,-81.116,0.72,0.59,0.79
0.332,-0.478,0.673,-16.000,-15.000,34.000,139.343,151.978,-69.580,0.74,0.62,0.80
0.261,-0.721,0.766,-16.000,-15.000,34.000,91.614,189.270,-65.491,0.78,0.64,0.81
0.196,-0.827,0.545,-24.000,-22.000,25.000,98.083,231.567,-41.992,0.81,0.68,0.83
0.193,-0.808,0.266,-24.000,-22.000,25.000,143.921,258.667,-6.775,0.84,0.73,0.87
0.326,-0.548,-0.366,-24.000,-22.000,25.000,176.880,211.304,21.912,0.87,0.79,0.91
0.526,-0.211,-0.276,-24.000,-22.000,25.000,144.043,149.414,0.854,0.89,0.84,0.94
0.528,-0.561,0.044,-24.000,-22.000,25.000,103.821,147.827,-16.846,0.90,0.87,0.97
0.482,-0.733,0.011,-28.000,-30.000,14.000,52.307,175.537,-16.418,0.92,0.91,1.00
0.479,-0.750,-0.198,-28.000,-30.000,14.000,50.720,188.232,-3.906,0.94,0.95,1.04
0.475,-0.786,-0.180,-28.000,-30.000,14.000,77.637,164.490,11.963,0.96,1.00,1.08
0.529,-0.459,-0.212,-28.000,-30.000,14.000,102.539,161.743,33.752,0.97,1.05,1.13
0.545,-0.278,-0.433,-28.000,-30.000,14.000,88.440,190.002,23.071,0.98,1.11,1.18
0.524,-0.451,-0.800,-27.000,-35.000,3.000,53.162,170.044,-4.944,0.99,1.16,1.23
0.521,-0.737,-0.741,-27.000,-35.000,3.000,84.167,122.498,6.226,1.00,1.20,1.27
0.561,-0.689,-0.713,-27.000,-35.000,3.000,125.610,98.877,18.433,1.00,1.25,1.30
0.614,-0.239,-0.326,-27.000,-35.000,3.000,147.400,61.523,36.438,1.00,1.30,1.32
0.621,-0.339,-0.419,-27.000,-35.000,3.000,96.069,88.806,11.719,1.00,1.34,1.35
0.542,-0.435,-0.650,-27.000,-35.000,3.000,75.073,115.112,2.808,1.01,1.38,1.39
0.494,-0.540,-0.814,-24.000,-33.000,-8.000,85.022,108.765,3.418,1.01,1.43,1.42
0.489,-0.570,-0.791,-24.000,-33.000,-8.000,116.455,76.050,15.930,1.01,1.47,1.45
0.526,-0.434,-0.521,-24.000,-33.000,-8.000,105.041,70.984,32.471,1.01,1.51,1.47
0.530,-0.175,-0.585,-24.000,-33.000,-8.000,47.607,113.342,22.705,1.00,1.55,1.51
0.446,-0.281,-1.000,-24.000,-33.000,-8.000,31.006,125.122,10.620,1.00,1.59,1.55
0.401,-0.451,-1.144,-23.000,-32.000,-14.000,35.156,106.079,1.953,1.00,1.63,1.59
0.414,-0.386,-1.112,-23.000,-32.000,-14.000,61.096,63.904,12.268,1.00,1.66,1.61
0.467,-0.253,-0.929,-23.000,-32.000,-14.000,59.387,31.921,15.503,0.99,1.68,1.62
0.479,-0.227,-0.791,-23.000,-32.000,-14.000,19.836,37.231,6.531,0.99,1.69,1.64
0.460,-0.271,-0.830,-23.000,-32.000,-14.000,-7.141,61.951,-3.174,0.99,1.71,1.66
0.420,-0.384,-0.990,-21.000,-32.000,-17.000,19.775,66.345,-2.808,0.99,1.73,1.68
0.415,-0.391,-1.191,-21.000,-32.000,-17.000,58.960,41.931,3.906,0.99,1.76,1.70
0.444,-0.294,-1.099,-21.000,-32.000,-17.000,60.242,13.611,4.761,0.99,1.77,1.70
0.442,-0.259,-0.920,-21.000,-32.000,-17.000,47.791,10.498,2.380,0.98,1.78,1.71
0.416,-0.292,-0.870,-21.000,-32.000,-17.000,18.616,19.104,-1.770,0.98,1.80,1.71
0.391,-0.338,-0.941,-20.000,-29.000,-19.000,-6.775,32.166,-2.930,0.98,1.81,1.73
0.389,-0.353,-1.040,-20.000,-29.000,-19.000,-8.362,32.043,-1.465,0.98,1.81,1.74
0.404,-0.318,-1.035,-20.000,-29.000,-19.000,0.488,17.761,1.587,0.98,1.82,1.75
0.413,-0.285,-0.965,-20.000,-29.000,-19.000,-3.723,7.141,1.221,0.98,1.83,1.75
0.410,-0.317,-0.888,-20.000,-29.000,-19.000,-17.090,14.954,-0.610,0.98,1.83,1.76
0.403,-0.322,-0.967,-20.000,-29.000,-19.000,-16.052,19.897,0.366,0.98,1.83,1.77
0.410,-0.309,-0.990,-21.000,-30.000,-20.000,-0.671,14.954,-2.197,0.98,1.84,1.77
0.416,-0.318,-0.985,-21.000,-30.000,-20.000,6.592,12.268,-2.747,0.98,1.85,1.78
0.432,-0.262,-0.974,-21.000,-30.000,-20.000,11.597,8.911,-4.028,0.98,1.86,1.78
0.430,-0.296,-1.012,-21.000,-30.000,-20.000,1.282,7.751,-10.498,0.98,1.86,1.79
0.412,-0.349,-1.035,-21.000,-30.000,-20.000,0.732,1.343,-12.939,0.98,1.87,1.79
0.399,-0.356,-0.973,-21.000,-29.000,-20.000,15.198,-9.644,-10.193,0.98,1.87,1.79
0.406,-0.342,-0.976,-21.000,-29.000,-20.000,22.522,-15.137,-7.812,0.98,1.87,1.79
0.427,-0.303,-0.960,-21.000,-29.000,-20.000,11.658,-17.212,-10.376,0.99,1.87,1.79
0.423,-0.353,-0.993,-21.000,-29.000,-20.000,-3.906,-14.771,-12.512,0.99,1.87,1.79
0.419,-0.383,-1.058,-21.000,-29.000,-20.000,-8.057,-20.874,-11.902,0.99,1.87,1.79
0.429,-0.388,-1.056,-22.000,-29.000,-20.000,-4.272,-27.588,-9.155,0.99,1.87,1.78
0.434,-0.365,-1.070,-22.000,-29.000,-20.000,-6.348,-28.198,-9.338,1.00,1.86,1.78
0.421,-0.435,-1.242,-22.000,-29.000,-20.000,-19.836,-25.330,-12.573,1.00,1.86,1.77
0.421,-0.554,-1.424,-22.000,-29.000,-20.000,-30.518,-32.898,-10.193,1.00,1.85,1.77
0.448,-0.562,-1.411,-22.000,-29.000,-20.000,-28.137,-64.575,6.287,1.00,1.83,1.75
0.486,-0.476,-1.237,-21.000,-32.000,-15.000,-21.790,-101.562,21.240,1.00,1.80,1.72
0.507,-0.484,-1.168,-21.000,-32.000,-15.000,-32.532,-120.666,25.635,1.00,1.77,1.68
0.504,-0.522,-1.202,-21.000,-32.000,-15.000,-50.232,-129.150,32.776,1.00,1.73,1.65
0.488,-0.561,-1.267,-21.000,-32.000,-15.000,-49.072,-150.085,48.035,1.00,1.68,1.60
0.519,-0.561,-1.208,-21.000,-32.000,-15.000,-30.762,-183.105,62.622,0.99,1.63,1.54
0.463,-0.508,-1.025,-21.000,-32.000,-15.000,-34.790,-211.731,71.228,0.98,1.57,1.48
0.461,-0.582,-0.798,-20.000,-38.000,-6.000,-34.485,-216.309,76.904,0.97,1.52,1.42
0.521,-0.420,-0.734,-20.000,-38.000,-6.000,-3.479,-213.196,92.834,0.95,1.47,1.36
0.522,-0.448,-0.667,-20.000,-38.000,-6.000,-12.451,-210.266,97.412,0.93,1.42,1.31
0.517,-0.430,-0.499,-20.000,-38.000,-6.000,1.099,-214.050,105.591,0.90,1.38,1.25
0.547,-0.418,-0.387,-20.000,-38.000,-6.000,21.240,-215.332,116.394,0.88,1.35,1.21
0.566,-0.327,-0.301,-16.000,-42.000,2.000,37.109,-218.140,129.272,0.85,1.32,1.16
0.584,-0.262,-0.259,-16.000,-42.000,2.000,51.880,-223.511,133.728,0.82,1.29,1.11
0.634,-0.077,-0.144,-16.000,-42.000,2.000,49.500,-229.858,124.390,0.78,1.27,1.07
0.708,0.028,0.021,-16.000,-42.000,2.000,30.579,-224.365,105.164,0.75,1.25,1.03
0.769,0.103,0.162,-16.000,-42.000,2.000,22.339,-216.187,94.482,0.73,1.22,0.99
0.785,0.101,0.257,-9.000,-43.000,16.000,5.676,-188.538,69.397,0.70,1.20,0.95
0.780,0.036,0.228,-9.000,-43.000,16.000,-6.714,-157.715,48.706,0.69,1.18,0.93
0.788,0.010,0.184,-9.000,-43.000,16.000,-8.911,-141.724,39.612,0.67,1.17,0.90
0.803,-0.028,0.219,-9.000,-43.000,16.000,0.244,-138.245,36.499,0.65,1.15,0.88
0.807,-0.009,0.268,-9.000,-43.000,16.000,3.662,-131.775,35.034,0.64,1.14,0.85
0.803,0.050,0.254,-6.000,-40.000,28.000,-10.315,-117.493,26.001,0.62,1.12,0.83
0.764,0.034,0.190,-6.000,-40.000,28.000,-17.883,-119.141,17.212,0.61,1.11,0.81
0.745,-0.018,0.331,-6.000,-40.000,28.000,-18.738,-122.437,15.198,0.60,1.09,0.79
0.739,-0.049,0.428,-6.000,-40.000,28.000,-10.132,-120.911,19.470,0.59,1.08,0.77
0.749,0.030,0.512,-6.000,-40.000,28.000,-2.441,-117.737,28.503,0.57,1.07,0.75
0.767,0.121,0.523,-6.000,-40.000,28.000,-7.874,-107.666,28.625,0.56,1.06,0.74
0.753,0.123,0.462,-5.000,-35.000,35.000,-22.339,-99.304,20.142,0.55,1.05,0.72
0.736,0.074,0.407,-5.000,-35.000,35.000,-34.790,-103.821,14.771,0.53,1.03,0.71
0.714,-0.036,0.282,-5.000,-35.000,35.000,-33.508,-124.146,24.353,0.52,1.02,0.69
0.691,0.046,0.458,-5.000,-35.000,35.000,-16.052,-147.400,38.635,0.50,1.00,0.67
0.656,0.302,0.793,-5.000,-35.000,35.000,-6.592,-150.391,37.231,0.48,0.99,0.65
0.664,0.234,0.707,-2.000,-28.000,39.000,-35.950,-114.380,7.874,0.46,0.98,0.63
0.658,0.214,0.435,-2.000,-28.000,39.000,-33.997,-94.116,-3.601,0.46,0.96,0.61
0.616,0.276,0.585,-2.000,-28.000,39.000,-23.499,-118.835,-8.911,0.44,0.95,0.59
0.593,0.133,0.780,-2.000,-28.000,39.000,-32.288,-123.718,-27.100,0.43,0.94,0.57
0.648,-0.053,0.768,-2.000,-28.000,39.000,-18.433,-108.276,-31.067,0.43,0.92,0.55
0.542,-0.029,0.561,-4.000,-16.000,43.000,14.343,-111.572,-4.272,0.41,0.92,0.54
0.413,0.400,0.396,-4.000,-16.000,43.000,-1.526,-152.466,-17.090,0.40,0.91,0.51
0.370,0.379,0.663,-4.000,-16.000,43.000,-34.058,-204.285,-55.542,0.38,0.89,0.48
0.192,-0.100,0.984,-4.000,-16.000,43.000,-39.856,-207.031,-63.843,0.37,0.87,0.44
0.125,-0.378,0.601,-4.000,-16.000,43.000,-12.390,-182.190,-35.034,0.35,0.85,0.41
0.003,-0.059,0.517,-4.000,-16.000,43.000,55.908,-224.182,22.400,0.33,0.85,0.38
-0.036,0.163,1.072,-1.000,-1.000,36.000,29.419,-282.166,45.166,0.29,0.85,0.35
-0.036,0.213,1.234,-1.000,-1.000,36.000,-12.451,-257.751,41.199,0.25,0.84,0.32
-0.068,0.361,1.334,-1.000,-1.000,36.000,-16.907,-222.778,23.437,0.23,0.83,0.29
-0.103,0.357,1.343,-1.000,-1.000,36.000,-21.912,-180.298,-0.671,0.20,0.82,0.27
-0.117,0.384,1.021,-1.000,-1.000,36.000,-23.926,-159.424,-22.766,0.19,0.81,0.25
-0.176,0.212,1.014,0.000,12.000,38.000,-29.724,-163.574,-31.799,0.17,0.79,0.22
-0.205,0.007,1.270,0.000,12.000,38.000,-22.278,-163.818,-25.391,0.16,0.79,0.20
-0.278,0.217,1.343,0.000,12.000,38.000,-5.127,-137.512,3.906,0.14,0.78,0.19
-0.310,0.547,1.329,0.000,12.000,38.000,-6.653,-102.539,5.493,0.13,0.78,0.17
-0.284,0.518,1.191,0.000,12.000,38.000,-26.611,-67.627,-33.142,0.12,0.77,0.16
-0.272,0.360,1.054,-2.000,17.000,38.000,-34.302,-50.537,-63.232,0.13,0.76,0.15
-0.308,0.091,0.943,-2.000,17.000,38.000,1.038,-57.251,-44.189,0.12,0.76,0.14
-0.345,0.343,1.179,-2.000,17.000,38.000,13.855,-45.837,-14.038,0.12,0.76,0.13
-0.379,0.675,0.997,-2.000,17.000,38.000,-6.226,-33.325,-12.390,0.12,0.75,0.12
-0.389,0.169,0.801,-2.000,17.000,38.000,-38.635,-37.903,-78.552,0.13,0.74,0.11
