ax,ay,az,mx,my,mz,gx,gy,gz,pitch,roll,yaw
0.008,-0.025,1.005,-32.000,-12.000,-75.000,0.000,-0.061,0.061,-0.01,-0.02,0.01
0.009,-0.026,1.005,-32.000,-12.000,-75.000,0.000,-0.061,0.122,-0.01,-0.03,0.01
0.008,-0.026,1.006,-32.000,-12.000,-75.000,0.000,-0.122,0.061,-0.01,-0.03,0.01
0.008,-0.024,1.006,-32.000,-12.000,-75.000,-0.061,-0.122,0.000,-0.01,-0.03,0.01
0.008,-0.025,1.005,-32.000,-12.000,-75.000,-0.122,-0.122,0.061,-0.01,-0.02,0.01
0.007,-0.026,1.005,-32.000,-12.000,-75.000,0.000,-0.122,0.061,-0.01,-0.03,0.01
0.009,-0.028,1.006,-33.000,-12.000,-71.000,-0.061,-0.061,0.000,-0.01,-0.03,0.01
0.008,-0.027,1.005,-33.000,-12.000,-71.000,0.000,-0.122,-0.061,-0.01,-0.03,0.01
0.008,-0.026,1.005,-33.000,-12.000,-71.000,0.000,-0.122,0.061,-0.01,-0.03,0.01
0.009,-0.024,1.006,-33.000,-12.000,-71.000,-0.061,-0.122,0.061,-0.01,-0.02,0.01
0.009,-0.026,1.004,-33.000,-12.000,-71.000,0.000,-0.122,0.061,-0.01,-0.03,0.01
0.009,-0.027,1.005,-32.000,-12.000,-76.000,0.000,-0.122,0.061,-0.01,-0.03,0.01
0.009,-0.027,1.005,-32.000,-12.000,-76.000,0.000,-0.122,0.061,-0.01,-0.03,0.01
0.008,-0.025,1.004,-32.000,-12.000,-76.000,-0.061,-0.183,0.000,-0.01,-0.03,0.01
0.009,-0.024,1.005,-32.000,-12.000,-76.000,0.000,-0.122,0.000,-0.01,-0.02,0.01
0.009,-0.027,1.005,-32.000,-12.000,-76.000,0.061,-0.122,0.000,-0.01,-0.03,0.01
0.008,-0.027,1.005,-32.000,-12.000,-76.000,0.000,-0.122,0.000,-0.01,-0.03,0.01
0.010,-0.026,1.006,-33.000,-12.000,-76.000,-0.061,-0.122,0.061,-0.01,-0.03,0.01
0.009,-0.026,1.006,-33.000,-12.000,-76.000,0.000,-0.061,0.061,-0.01,-0.03,0.01
0.009,-0.026,1.004,-33.000,-12.000,-76.000,0.000,-0.183,0.061,-0.01,-0.03,0.01
0.009,-0.025,1.004,-33.000,-12.000,-76.000,-0.061,-0.061,0.061,-0.01,-0.02,0.01
0.009,-0.027,1.005,-33.000,-12.000,-76.000,0.000,-0.122,0.000,-0.01,-0.03,0.01
0.008,-0.028,1.005,-32.000,-11.000,-71.000,0.000,-0.122,0.000,-0.01,-0.03,0.01
0.009,-0.027,1.005,-32.000,-11.000,-71.000,0.000,-0.122,0.000,-0.01,-0.03,0.01
0.008,-0.025,1.005,-32.000,-11.000,-71.000,0.000,-0.061,0.061,-0.01,-0.02,0.01
0.009,-0.024,1.005,-32.000,-11.000,-71.000,0.000,-0.122,0.061,-0.01,-0.02,0.01
0.009,-0.024,1.004,-32.000,-11.000,-71.000,0.000,-0.061,0.000,-0.01,-0.02,0.01
0.009,-0.026,1.005,-32.000,-13.000,-78.000,0.000,-0.122,0.000,-0.01,-0.03,0.01
0.009,-0.027,1.005,-32.000,-13.000,-78.000,0.000,-0.061,0.061,-0.01,-0.03,0.01
0.008,-0.028,1.004,-32.000,-13.000,-78.000,-0.061,-0.122,0.000,-0.01,-0.03,0.01
0.007,-0.026,1.005,-32.000,-13.000,-78.000,0.000,-0.183,0.000,-0.01,-0.03,0.01
0.009,-0.024,1.004,-32.000,-13.000,-78.000,-0.061,-0.122,0.000,-0.01,-0.03,0.01
0.009,-0.025,1.004,-31.000,-12.000,-77.000,-0.122,-0.122,0.000,-0.01,-0.03,0.01
0.009,-0.027,1.004,-31.000,-12.000,-77.000,-0.122,-0.122,0.000,-0.01,-0.03,0.01
0.008,-0.026,1.006,-31.000,-12.000,-77.000,0.061,-0.122,0.000,-0.01,-0.03,0.01
0.009,-0.026,1.005,-31.000,-12.000,-77.000,0.000,-0.183,0.061,-0.01,-0.03,0.01
0.008,-0.026,1.004,-31.000,-12.000,-77.000,-0.061,-0.122,0.000,-0.01,-0.03,0.01
0.007,-0.026,1.004,-34.000,-12.000,-77.000,0.000,-0.183,-0.061,-0.01,-0.03,0.01
0.007,-0.027,1.004,-34.000,-12.000,-77.000,0.000,-0.183,0.000,-0.01,-0.03,0.01
0.008,-0.026,1.005,-34.000,-12.000,-77.000,0.000,-0.122,0.000,-0.01,-0.03,0.01
0.008,-0.026,1.004,-34.000,-12.000,-77.000,-0.061,-0.122,0.000,-0.01,-0.03,0.01
0.010,-0.026,1.006,-34.000,-12.000,-77.000,-0.061,-0.183,0.061,-0.01,-0.03,0.01
0.009,-0.026,1.006,-34.000,-12.000,-77.000,-0.061,-0.122,0.061,-0.01,-0.03,0.01
0.008,-0.027,1.004,-32.000,-11.000,-72.000,-0.061,-0.122,0.061,-0.01,-0.03,0.01
0.007,-0.025,1.004,-32.000,-11.000,-72.000,0.000,-0.183,0.061,-0.01,-0.03,0.01
0.007,-0.024,1.005,-32.000,-11.000,-72.000,0.000,-0.122,0.061,-0.01,-0.02,0.01
0.008,-0.028,1.005,-32.000,-11.000,-72.000,-0.061,-0.061,0.061,-0.01,-0.03,0.01
0.008,-0.029,1.005,-32.000,-11.000,-72.000,-0.061,-0.122,0.061,-0.01,-0.03,0.01
0.009,-0.029,1.005,-31.000,-10.000,-75.000,0.000,-0.122,-0.061,-0.01,-0.03,0.01
0.008,-0.027,1.006,-31.000,-10.000,-75.000,0.000,-0.122,0.000,-0.01,-0.03,0.01
0.008,-0.023,1.005,-31.000,-10.000,-75.000,-0.061,-0.122,0.061,-0.01,-0.03,0.01
0.009,-0.023,1.005,-31.000,-10.000,-75.000,-0.061,-0.122,0.000,-0.01,-0.02,0.01
0.009,-0.027,1.005,-31.000,-10.000,-75.000,-0.061,-0.122,0.061,-0.01,-0.03,0.01
0.009,-0.030,1.005,-33.000,-12.000,-70.000,0.061,-0.122,0.061,-0.01,-0.03,0.01
0.009,-0.027,1.005,-33.000,-12.000,-70.000,0.000,-0.122,0.000,-0.01,-0.03,0.01
0.008,-0.025,1.005,-33.000,-12.000,-70.000,-0.061,-0.061,0.000,-0.01,-0.02,0.01
0.010,-0.024,1.004,-33.000,-12.000,-70.000,0.000,-0.061,0.000,-0.01,-0.02,0.01
0.010,-0.025,1.006,-33.000,-12.000,-70.000,0.000,-0.122,0.061,-0.01,-0.03,0.01
0.009,-0.027,1.006,-34.000,-13.000,-74.000,0.000,-0.122,0.122,-0.01,-0.03,0.01
0.009,-0.029,1.005,-34.000,-13.000,-74.000,-0.061,-0.061,0.061,-0.01,-0.03,0.01
0.008,-0.028,1.006,-34.000,-13.000,-74.000,0.000,-0.061,0.000,-0.01,-0.03,0.01
0.006,-0.025,1.006,-34.000,-13.000,-74.000,0.000,-0.122,0.000,-0.01,-0.03,0.01
0.008,-0.026,1.006,-34.000,-13.000,-74.000,0.000,-0.122,0.000,-0.01,-0.03,0.01
0.009,-0.026,1.005,-34.000,-13.000,-74.000,0.000,-0.122,0.061,-0.01,-0.03,0.01
0.009,-0.025,1.005,-33.000,-10.000,-69.000,-0.061,-0.061,0.000,-0.01,-0.02,0.01
0.007,-0.026,1.006,-33.000,-10.000,-69.000,0.000,-0.122,0.000,-0.01,-0.03,0.01
0.007,-0.024,1.005,-33.000,-10.000,-69.000,0.000,-0.122,0.000,-0.01,-0.02,0.01
0.008,-0.026,1.006,-33.000,-10.000,-69.000,0.000,-0.061,0.061,-0.01,-0.03,0.01
0.009,-0.027,1.006,-33.000,-10.000,-69.000,-0.061,-0.122,0.061,-0.01,-0.03,0.01
0.008,-0.029,1.005,-32.000,-13.000,-69.000,-0.061,-0.122,0.061,-0.01,-0.03,0.01
0.008,-0.027,1.005,-32.000,-13.000,-69.000,-0.061,-0.183,0.000,-0.01,-0.03,0.01
0.008,-0.025,1.004,-32.000,-13.000,-69.000,-0.061,-0.122,0.061,-0.01,-0.02,0.01
0.008,-0.025,1.004,-32.000,-13.000,-69.000,-0.061,-0.061,0.061,-0.01,-0.02,0.01
0.009,-0.026,1.004,-32.000,-13.000,-69.000,-0.061,-0.122,0.061,-0.01,-0.03,0.01
0.009,-0.028,1.004,-31.000,-12.000,-74.000,0.000,-0.183,0.000,-0.01,-0.03,0.01
0.009,-0.029,1.006,-31.000,-12.000,-74.000,0.000,-0.122,0.000,-0.01,-0.03,0.01
0.008,-0.028,1.006,-31.000,-12.000,-74.000,0.000,-0.122,0.000,-0.01,-0.03,0.01
0.008,-0.026,1.005,-31.000,-12.000,-74.000,0.000,-0.183,0.061,-0.01,-0.03,0.01
0.009,-0.024,1.004,-31.000,-12.000,-74.000,0.000,-0.122,0.000,-0.01,-0.02,0.01
0.008,-0.025,1.005,-32.000,-12.000,-70.000,0.061,-0.122,0.061,-0.01,-0.02,0.01
0.010,-0.026,1.005,-32.000,-12.000,-70.000,-0.061,-0.122,0.000,-0.01,-0.03,0.01
0.009,-0.027,1.005,-32.000,-12.000,-70.000,-0.061,-0.122,0.000,-0.01,-0.03,0.01
0.008,-0.026,1.004,-32.000,-12.000,-70.000,0.000,-0.183,0.061,-0.01,-0.03,0.01
0.009,-0.025,1.005,-32.000,-12.000,-70.000,0.000,-0.122,0.061,-0.01,-0.02,0.01
0.007,-0.024,1.004,-32.000,-12.000,-70.000,0.000,-0.122,0.061,-0.01,-0.02,0.01
0.008,-0.026,1.005,-33.000,-10.000,-74.000,0.000,-0.122,0.061,-0.01,-0.03,0.01
0.009,-0.027,1.005,-33.000,-10.000,-74.000,0.000,-0.061,0.061,-0.01,-0.03,0.01
0.009,-0.027,1.006,-33.000,-10.000,-74.000,0.000,-0.183,0.000,-0.01,-0.03,0.01
0.010,-0.028,1.005,-33.000,-10.000,-74.000,-0.061,-0.122,0.061,-0.01,-0.03,0.01
0.008,-0.027,1.005,-33.000,-10.000,-74.000,-0.061,-0.122,0.061,-0.01,-0.03,0.01
0.007,-0.025,1.006,-33.000,-13.000,-70.000,-0.061,-0.122,0.061,-0.01,-0.03,0.01
0.009,-0.025,1.005,-33.000,-13.000,-70.000,-0.061,-0.061,0.000,-0.01,-0.03,0.01
0.010,-0.027,1.005,-33.000,-13.000,-70.000,0.000,-0.122,0.000,-0.01,-0.03,0.01
0.009,-0.027,1.005,-33.000,-13.000,-70.000,0.000,-0.122,0.061,-0.01,-0.03,0.01
0.008,-0.026,1.005,-33.000,-13.000,-70.000,-0.061,-0.061,0.000,-0.01,-0.02,0.01
0.008,-0.025,1.005,-32.000,-10.000,-75.000,0.000,-0.122,-0.061,-0.01,-0.02,0.01
0.008,-0.024,1.004,-32.000,-10.000,-75.000,-0.061,-0.122,0.061,-0.01,-0.02,0.01
0.008,-0.026,1.005,-32.000,-10.000,-75.000,-0.122,-0.122,0.122,-0.01,-0.03,0.01
0.009,-0.028,1.005,-32.000,-10.000,-75.000,-0.061,-0.183,0.000,-0.01,-0.03,0.01
0.009,-0.027,1.004,-32.000,-10.000,-75.000,-0.061,-0.122,-0.061,-0.01,-0.03,0.01
0.009,-0.025,1.005,-31.000,-8.000,-73.000,-0.061,-0.122,-0.061,-0.01,-0.02,0.01
0.007,-0.025,1.005,-31.000,-8.000,-73.000,0.000,-0.183,0.000,-0.01,-0.02,0.01
0.007,-0.026,1.005,-31.000,-8.000,-73.000,0.000,-0.122,0.061,-0.01,-0.03,0.01
0.007,-0.026,1.004,-31.000,-8.000,-73.000,-0.061,-0.061,0.061,-0.01,-0.02,0.01
0.008,-0.027,1.005,-31.000,-8.000,-73.000,0.000,-0.122,0.061,-0.01,-0.03,0.01
0.009,-0.026,1.005,-31.000,-8.000,-73.000,0.000,-0.122,0.000,-0.01,-0.03,0.01
0.009,-0.026,1.004,-33.000,-11.000,-73.000,-0.061,-0.122,0.000,-0.01,-0.03,0.01
0.009,-0.027,1.004,-33.000,-11.000,-73.000,-0.061,-0.061,0.061,-0.01,-0.03,0.01
0.008,-0.025,1.006,-33.000,-11.000,-73.000,-0.061,-0.183,0.061,-0.01,-0.03,0.01
0.006,-0.025,1.006,-33.000,-11.000,-73.000,0.000,-0.183,0.000,-0.01,-0.02,0.01
0.007,-0.026,1.005,-33.000,-11.000,-73.000,0.000,-0.183,0.061,-0.01,-0.03,0.01
0.009,-0.026,1.004,-33.000,-11.000,-75.000,-0.061,-0.122,0.000,-0.01,-0.03,0.01
0.008,-0.025,1.004,-33.000,-11.000,-75.000,-0.061,-0.122,0.061,-0.01,-0.02,0.01
0.008,-0.025,1.004,-33.000,-11.000,-75.000,-0.122,-0.122,0.061,-0.01,-0.02,0.01
0.010,-0.026,1.004,-33.000,-11.000,-75.000,-0.061,-0.183,0.000,-0.01,-0.03,0.01
0.008,-0.027,1.004,-33.000,-11.000,-75.000,0.000,-0.183,0.061,-0.01,-0.03,0.01
0.007,-0.026,1.005,-32.000,-12.000,-72.000,0.000,-0.122,0.000,-0.01,-0.03,0.01
0.008,-0.024,1.005,-32.000,-12.000,-72.000,-0.061,-0.183,0.061,-0.01,-0.02,0.01
0.008,-0.024,1.006,-32.000,-12.000,-72.000,0.000,-0.183,0.122,-0.01,-0.02,0.01
0.009,-0.027,1.006,-32.000,-12.000,-72.000,-0.122,-0.183,0.061,-0.01,-0.03,0.01
0.008,-0.029,1.005,-32.000,-12.000,-72.000,-0.061,-0.183,0.000,-0.01,-0.03,0.01
0.007,-0.026,1.005,-33.000,-14.000,-80.000,-0.061,-0.183,-0.061,-0.01,-0.03,0.01
0.006,-0.025,1.004,-33.000,-14.000,-80.000,-0.122,-0.183,0.061,-0.01,-0.03,0.01
0.007,-0.025,1.005,-33.000,-14.000,-80.000,-0.061,-0.183,0.122,-0.01,-0.03,0.01
0.009,-0.026,1.004,-33.000,-14.000,-80.000,-0.061,-0.183,0.061,-0.01,-0.03,0.01
0.009,-0.027,1.005,-33.000,-14.000,-80.000,-0.122,-0.183,0.061,-0.01,-0.03,0.01
0.009,-0.027,1.005,-32.000,-11.000,-71.000,-0.061,-0.122,0.000,-0.01,-0.03,0.01
0.007,-0.026,1.004,-32.000,-11.000,-71.000,-0.061,-0.183,0.061,-0.01,-0.03,0.01
0.007,-0.024,1.004,-32.000,-11.000,-71.000,-0.061,-0.061,0.000,-0.01,-0.02,0.01
0.009,-0.025,1.005,-32.000,-11.000,-71.000,0.000,-0.061,0.061,-0.01,-0.02,0.01
0.007,-0.024,1.005,-32.000,-11.000,-71.000,0.000,-0.122,0.061,-0.01,-0.02,0.01
0.009,-0.025,1.006,-32.000,-11.000,-71.000,-0.061,-0.122,-0.061,-0.01,-0.03,0.01
0.008,-0.025,1.005,-33.000,-10.000,-75.000,-0.122,-0.122,0.000,-0.01,-0.02,0.01
0.008,-0.025,1.005,-33.000,-10.000,-75.000,-0.061,-0.122,0.061,-0.01,-0.03,0.01
0.009,-0.026,1.006,-33.000,-10.000,-75.000,-0.061,-0.183,0.061,-0.01,-0.03,0.01
0.008,-0.026,1.006,-33.000,-10.000,-75.000,0.000,-0.183,0.061,-0.01,-0.03,0.01
0.007,-0.025,1.006,-33.000,-10.000,-75.000,0.000,-0.183,0.061,-0.01,-0.02,0.01
0.007,-0.025,1.005,-33.000,-10.000,-74.000,-0.061,-0.061,0.061,-0.01,-0.03,0.01
0.008,-0.026,1.005,-33.000,-10.000,-74.000,0.000,-0.122,0.061,-0.01,-0.03,0.01
0.008,-0.025,1.005,-33.000,-10.000,-74.000,-0.061,-0.122,0.000,-0.01,-0.03,0.01
0.007,-0.024,1.003,-33.000,-10.000,-74.000,-0.061,-0.122,0.061,-0.01,-0.02,0.01
0.008,-0.026,1.005,-33.000,-10.000,-74.000,-0.061,-0.122,0.122,-0.01,-0.03,0.01
0.009,-0.026,1.005,-34.000,-12.000,-73.000,0.000,-0.122,0.061,-0.01,-0.03,0.01
0.007,-0.025,1.005,-34.000,-12.000,-73.000,0.000,-0.122,0.061,-0.01,-0.02,0.01
0.007,-0.024,1.005,-34.000,-12.000,-73.000,-0.061,-0.183,0.000,-0.01,-0.02,0.01
0.009,-0.025,1.005,-34.000,-12.000,-73.000,-0.061,-0.122,0.061,-0.01,-0.02,0.01
0.010,-0.026,1.006,-34.000,-12.000,-73.000,-0.061,-0.122,0.122,-0.01,-0.03,0.01
0.008,-0.025,1.005,-31.000,-13.000,-72.000,0.000,-0.122,0.061,-0.01,-0.03,0.01
0.006,-0.025,1.005,-31.000,-13.000,-72.000,-0.061,-0.122,0.000,-0.01,-0.02,0.01
0.008,-0.027,1.004,-31.000,-13.000,-72.000,-0.061,-0.061,0.000,-0.01,-0.03,0.01
0.009,-0.027,1.005,-31.000,-13.000,-72.000,-0.061,-0.122,0.000,-0.01,-0.03,0.01
0.008,-0.025,1.004,-31.000,-13.000,-72.000,0.000,-0.122,0.000,-0.01,-0.03,0.01
0.008,-0.025,1.005,-31.000,-13.000,-72.000,0.000,-0.122,0.000,-0.01,-0.02,0.01
0.009,-0.026,1.004,-32.000,-13.000,-71.000,0.000,-0.122,0.000,-0.01,-0.03,0.01
0.009,-0.026,1.004,-32.000,-13.000,-71.000,0.000,-0.122,0.061,-0.01,-0.03,0.01
0.009,-0.025,1.006,-32.000,-13.000,-71.000,0.000,-0.122,0.061,-0.01,-0.02,0.01
0.009,-0.024,1.006,-32.000,-13.000,-71.000,0.000,-0.061,0.000,-0.01,-0.02,0.01
0.009,-0.024,1.005,-32.000,-13.000,-71.000,0.000,-0.122,0.000,-0.01,-0.02,0.01
0.008,-0.026,1.004,-34.000,-12.000,-75.000,0.000,-0.122,0.061,-0.01,-0.03,0.01
0.009,-0.026,1.004,-34.000,-12.000,-75.000,0.000,-0.122,0.183,-0.01,-0.03,0.01
0.009,-0.026,1.005,-34.000,-12.000,-75.000,0.000,-0.122,0.061,-0.01,-0.02,0.01
0.009,-0.024,1.005,-34.000,-12.000,-75.000,0.000,-0.122,0.000,-0.01,-0.02,0.01
0.008,-0.025,1.004,-34.000,-12.000,-75.000,0.000,-0.122,0.061,-0.01,-0.02,0.01
0.008,-0.026,1.006,-30.000,-11.000,-73.000,-0.061,-0.122,0.061,-0.01,-0.03,0.01
0.008,-0.025,1.005,-30.000,-11.000,-73.000,-0.061,-0.122,0.061,-0.01,-0.02,0.01
0.007,-0.025,1.005,-30.000,-11.000,-73.000,0.000,-0.061,0.061,-0.01,-0.03,0.01
0.007,-0.026,1.005,-30.000,-11.000,-73.000,0.000,-0.122,0.061,-0.01,-0.03,0.01
0.008,-0.026,1.003,-30.000,-11.000,-73.000,0.000,-0.122,0.000,-0.01,-0.03,0.01
0.009,-0.025,1.005,-31.000,-12.000,-73.000,0.000,-0.122,-0.061,-0.01,-0.03,0.01
0.008,-0.023,1.005,-31.000,-12.000,-73.000,-0.061,-0.122,0.000,-0.01,-0.02,0.01
0.008,-0.026,1.005,-31.000,-12.000,-73.000,-0.061,-0.061,0.061,-0.01,-0.03,0.01
0.008,-0.028,1.004,-31.000,-12.000,-73.000,0.000,-0.122,0.061,-0.01,-0.03,0.01
0.009,-0.025,1.004,-31.000,-12.000,-73.000,0.000,-0.122,0.061,-0.01,-0.03,0.01
0.007,-0.025,1.005,-31.000,-12.000,-73.000,-0.061,-0.122,0.000,-0.01,-0.02,0.01
0.008,-0.026,1.005,-29.000,-12.000,-74.000,-0.061,-0.122,0.061,-0.01,-0.03,0.01
0.008,-0.026,1.005,-29.000,-12.000,-74.000,-0.061,-0.122,0.000,-0.01,-0.03,0.01
0.008,-0.026,1.005,-29.000,-12.000,-74.000,0.061,-0.122,0.000,-0.01,-0.03,0.01
0.009,-0.025,1.005,-29.000,-12.000,-74.000,-0.061,-0.122,0.000,-0.01,-0.03,0.01
0.008,-0.025,1.006,-29.000,-12.000,-74.000,-0.061,-0.122,0.000,-0.01,-0.03,0.01
0.008,-0.026,1.006,-33.000,-11.000,-71.000,0.000,-0.122,0.000,-0.01,-0.03,0.01
0.008,-0.025,1.004,-33.000,-11.000,-71.000,-0.061,-0.122,0.000,-0.01,-0.03,0.01
0.007,-0.025,1.006,-33.000,-11.000,-71.000,-0.061,-0.061,0.000,-0.01,-0.03,0.01
0.009,-0.026,1.006,-33.000,-11.000,-71.000,0.000,-0.061,-0.061,-0.01,-0.03,0.01
0.008,-0.027,1.004,-33.000,-11.000,-71.000,0.000,-0.122,0.061,-0.01,-0.03,0.01
0.008,-0.026,1.005,-32.000,-11.000,-75.000,0.000,-0.183,0.061,-0.01,-0.03,0.01
0.007,-0.025,1.004,-32.000,-11.000,-75.000,0.000,-0.183,0.061,-0.01,-0.02,0.01
0.008,-0.026,1.004,-32.000,-11.000,-75.000,0.000,-0.122,0.061,-0.01,-0.03,0.01
0.008,-0.026,1.005,-32.000,-11.000,-75.000,-0.061,-0.122,0.000,-0.01,-0.03,0.01
0.008,-0.026,1.005,-32.000,-11.000,-75.000,-0.061,-0.122,0.061,-0.01,-0.03,0.01
0.008,-0.025,1.006,-30.000,-12.000,-75.000,-0.061,-0.122,0.061,-0.01,-0.02,0.01
0.009,-0.025,1.004,-30.000,-12.000,-75.000,0.000,-0.122,0.061,-0.01,-0.03,0.01
0.008,-0.025,1.004,-30.000,-12.000,-75.000,0.000,-0.122,0.122,-0.01,-0.03,0.01
0.008,-0.025,1.004,-30.000,-12.000,-75.000,-0.061,-0.122,0.061,-0.01,-0.03,0.01
0.008,-0.026,1.005,-30.000,-12.000,-75.000,-0.061,-0.122,0.061,-0.01,-0.03,0.01
0.007,-0.027,1.004,-31.000,-11.000,-75.000,-0.061,-0.122,0.061,-0.01,-0.03,0.01
0.008,-0.025,1.006,-31.000,-11.000,-75.000,0.000,-0.061,0.000,-0.01,-0.03,0.01
0.008,-0.025,1.005,-31.000,-11.000,-75.000,0.000,-0.122,0.000,-0.01,-0.02,0.01
0.008,-0.026,1.005,-31.000,-11.000,-75.000,0.000,-0.122,0.000,-0.01,-0.03,0.01
0.008,-0.025,1.005,-31.000,-11.000,-75.000,0.000,-0.122,0.061,-0.01,-0.02,0.01
0.008,-0.026,1.005,-31.000,-11.000,-75.000,-0.061,-0.061,0.000,-0.01,-0.03,0.01
0.007,-0.025,1.006,-32.000,-11.000,-78.000,-0.061,-0.061,0.000,-0.01,-0.02,0.01
0.008,-0.026,1.004,-32.000,-11.000,-78.000,0.000,-0.122,0.061,-0.01,-0.03,0.01
0.008,-0.026,1.005,-32.000,-11.000,-78.000,0.000,-0.122,0.061,-0.01,-0.03,0.01
0.008,-0.026,1.005,-32.000,-11.000,-78.000,0.000,-0.122,0.061,-0.01,-0.03,0.01
0.008,-0.026,1.006,-32.000,-11.000,-78.000,-0.122,-0.122,0.061,-0.01,-0.03,0.01
0.010,-0.026,1.006,-35.000,-10.000,-71.000,-0.061,-0.183,0.000,-0.01,-0.03,0.01
0.010,-0.026,1.005,-35.000,-10.000,-71.000,-0.061,-0.122,0.061,-0.01,-0.03,0.01
0.008,-0.026,1.005,-35.000,-10.000,-71.000,-0.061,-0.122,0.000,-0.01,-0.03,0.01
0.008,-0.026,1.004,-35.000,-10.000,-71.000,0.000,-0.061,0.061,-0.01,-0.02,0.01
0.008,-0.025,1.004,-35.000,-10.000,-71.000,0.000,-0.122,0.061,-0.01,-0.03,0.01
0.007,-0.026,1.005,-35.000,-12.000,-75.000,-0.061,-0.122,0.061,-0.01,-0.02,0.01
0.007,-0.024,1.004,-35.000,-12.000,-75.000,-0.061,-0.061,0.000,-0.01,-0.02,0.01
0.008,-0.026,1.004,-35.000,-12.000,-75.000,0.000,-0.061,0.061,-0.01,-0.02,0.01
0.007,-0.026,1.005,-35.000,-12.000,-75.000,-0.061,-0.061,0.000,-0.01,-0.03,0.01
0.008,-0.026,1.005,-35.000,-12.000,-75.000,-0.061,-0.183,0.061,-0.01,-0.03,0.01
0.008,-0.026,1.006,-32.000,-12.000,-74.000,0.000,-0.122,0.061,-0.01,-0.03,0.01
0.008,-0.025,1.006,-32.000,-12.000,-74.000,0.000,-0.122,0.061,-0.01,-0.03,0.01
0.008,-0.025,1.005,-32.000,-12.000,-74.000,0.000,-0.183,0.061,-0.01,-0.03,0.01
0.008,-0.027,1.005,-32.000,-12.000,-74.000,0.000,-0.122,0.061,-0.01,-0.03,0.01
0.008,-0.026,1.006,-32.000,-12.000,-74.000,0.000,-0.122,0.122,-0.01,-0.03,0.01
0.009,-0.026,1.006,-32.000,-12.000,-74.000,0.000,-0.122,0.061,-0.01,-0.03,0.01
0.008,-0.026,1.005,-32.000,-10.000,-75.000,-0.061,-0.061,0.000,-0.01,-0.03,0.01
0.007,-0.026,1.005,-32.000,-10.000,-75.000,0.000,-0.061,0.000,-0.01,-0.02,0.01
0.009,-0.026,1.005,-32.000,-10.000,-75.000,-0.061,-0.122,0.000,-0.01,-0.03,0.01
0.007,-0.025,1.005,-32.000,-10.000,-75.000,-0.061,-0.122,0.061,-0.01,-0.02,0.01
0.008,-0.025,1.005,-32.000,-10.000,-75.000,-0.122,-0.061,0.061,-0.01,-0.02,0.01
0.008,-0.026,1.006,-30.000,-12.000,-73.000,0.000,-0.061,0.061,-0.01,-0.03,0.01
0.008,-0.025,1.005,-30.000,-12.000,-73.000,0.000,-0.122,0.000,-0.01,-0.02,0.01
0.007,-0.025,1.006,-30.000,-12.000,-73.000,0.000,-0.183,0.061,-0.01,-0.03,0.01
0.009,-0.025,1.005,-30.000,-12.000,-73.000,0.000,-0.183,0.000,-0.01,-0.03,0.01
0.008,-0.025,1.004,-30.000,-12.000,-73.000,-0.061,-0.122,0.000,-0.01,-0.02,0.01
0.008,-0.026,1.005,-32.000,-10.000,-75.000,-0.061,-0.061,0.061,-0.01,-0.03,0.01
0.008,-0.026,1.005,-32.000,-10.000,-75.000,-0.122,-0.122,0.061,-0.01,-0.03,0.01
0.008,-0.025,1.004,-32.000,-10.000,-75.000,-0.122,-0.122,-0.061,-0.01,-0.03,0.01
0.008,-0.026,1.005,-32.000,-10.000,-75.000,-0.061,-0.122,0.000,-0.01,-0.03,0.01
0.009,-0.025,1.005,-32.000,-10.000,-75.000,-0.061,-0.122,0.061,-0.01,-0.03,0.01
0.008,-0.026,1.005,-32.000,-11.000,-74.000,0.000,-0.122,0.000,-0.01,-0.03,0.01
0.008,-0.026,1.004,-32.000,-11.000,-74.000,0.000,-0.122,0.061,-0.01,-0.03,0.01
0.008,-0.025,1.004,-32.000,-11.000,-74.000,0.000,-0.122,0.061,-0.01,-0.02,0.01
0.008,-0.025,1.005,-32.000,-11.000,-74.000,0.000,-0.061,0.061,-0.01,-0.03,0.01
0.007,-0.026,1.004,-32.000,-11.000,-74.000,-0.061,-0.122,0.000,-0.01,-0.03,0.01
0.007,-0.026,1.005,-32.000,-11.000,-74.000,-0.061,-0.122,0.000,-0.01,-0.03,0.01
0.007,-0.025,1.006,-32.000,-12.000,-73.000,0.000,-0.122,0.061,-0.01,-0.02,0.01
0.007,-0.025,1.005,-32.000,-12.000,-73.000,-0.122,-0.122,0.000,-0.01,-0.03,0.01
0.007,-0.026,1.005,-32.000,-12.000,-73.000,-0.061,-0.122,0.000,-0.01,-0.03,0.01
0.008,-0.025,1.005,-32.000,-12.000,-73.000,0.000,-0.122,0.000,-0.01,-0.03,0.01
0.008,-0.025,1.003,-32.000,-12.000,-73.000,0.000,-0.122,0.061,-0.01,-0.02,0.01
0.008,-0.026,1.005,-32.000,-11.000,-69.000,0.000,-0.183,0.061,-0.01,-0.03,0.01
0.008,-0.027,1.005,-32.000,-11.000,-69.000,0.000,-0.122,0.061,-0.01,-0.03,0.01
0.009,-0.026,1.005,-32.000,-11.000,-69.000,-0.061,-0.122,0.000,-0.01,-0.03,0.01
0.007,-0.026,1.005,-32.000,-11.000,-69.000,-0.061,-0.122,0.000,-0.01,-0.03,0.01
0.008,-0.025,1.005,-32.000,-11.000,-69.000,-0.061,-0.122,0.000,-0.01,-0.02,0.01
0.009,-0.025,1.005,-32.000,-11.000,-70.000,-0.061,-0.183,0.061,-0.01,-0.03,0.01
0.009,-0.026,1.005,-32.000,-11.000,-70.000,0.000,-0.183,0.061,-0.01,-0.03,0.01
0.009,-0.026,1.005,-32.000,-11.000,-70.000,0.000,-0.122,0.061,-0.01,-0.03,0.01
0.008,-0.026,1.005,-32.000,-11.000,-70.000,0.000,-0.122,0.061,-0.01,-0.03,0.01
0.008,-0.026,1.005,-32.000,-11.000,-70.000,-0.061,-0.183,0.061,-0.01,-0.03,0.01
0.008,-0.026,1.005,-33.000,-14.000,-75.000,-0.061,-0.122,0.000,-0.01,-0.03,0.01
0.008,-0.026,1.005,-33.000,-14.000,-75.000,0.000,-0.122,-0.061,-0.01,-0.03,0.01
0.008,-0.026,1.005,-33.000,-14.000,-75.000,0.000,-0.122,0.000,-0.01,-0.03,0.01
0.008,-0.027,1.004,-33.000,-14.000,-75.000,-0.061,-0.061,0.061,-0.01,-0.03,0.01
0.009,-0.025,1.005,-33.000,-14.000,-75.000,0.061,-0.061,0.000,-0.01,-0.02,0.01
0.009,-0.025,1.004,-33.000,-14.000,-75.000,-0.061,-0.122,0.061,-0.01,-0.03,0.01
0.006,-0.025,1.006,-31.000,-12.000,-75.000,-0.061,-0.122,0.000,-0.01,-0.02,0.01
0.007,-0.025,1.005,-31.000,-12.000,-75.000,0.000,-0.122,0.000,-0.01,-0.03,0.01
0.008,-0.026,1.006,-31.000,-12.000,-75.000,0.000,-0.061,0.061,-0.01,-0.02,0.01
0.009,-0.026,1.006,-31.000,-12.000,-75.000,0.000,-0.122,0.061,-0.01,-0.03,0.01
0.007,-0.025,1.004,-31.000,-12.000,-75.000,0.000,-0.122,0.061,-0.01,-0.03,0.01
0.008,-0.025,1.005,-32.000,-10.000,-80.000,-0.061,-0.061,0.061,-0.01,-0.02,0.01
0.008,-0.026,1.005,-32.000,-10.000,-80.000,-0.061,-0.061,0.061,-0.01,-0.03,0.01
0.009,-0.025,1.004,-32.000,-10.000,-80.000,0.000,-0.122,0.000,-0.01,-0.03,0.01
0.008,-0.024,1.006,-32.000,-10.000,-80.000,0.000,-0.122,0.000,-0.01,-0.02,0.01
0.007,-0.024,1.006,-32.000,-10.000,-80.000,0.000,-0.122,0.122,-0.01,-0.02,0.01
0.008,-0.026,1.005,-31.000,-10.000,-78.000,-0.061,-0.122,0.061,-0.01,-0.03,0.01
0.009,-0.025,1.005,-31.000,-10.000,-78.000,0.000,-0.122,0.000,-0.01,-0.02,0.01
0.008,-0.025,1.005,-31.000,-10.000,-78.000,-0.061,-0.122,0.000,-0.01,-0.03,0.01
0.007,-0.026,1.005,-31.000,-10.000,-78.000,-0.061,-0.122,0.061,-0.01,-0.03,0.01
0.008,-0.026,1.004,-31.000,-10.000,-78.000,0.000,-0.061,0.061,-0.01,-0.03,0.01
0.008,-0.026,1.003,-32.000,-12.000,-74.000,-0.061,-0.061,0.000,-0.01,-0.03,0.01
0.009,-0.024,1.006,-32.000,-12.000,-74.000,-0.061,-0.122,0.000,-0.01,-0.02,0.01
0.008,-0.025,1.005,-32.000,-12.000,-74.000,-0.122,-0.183,0.000,-0.01,-0.03,0.01
0.009,-0.026,1.005,-32.000,-12.000,-74.000,-0.061,-0.183,0.061,-0.01,-0.03,0.01
0.008,-0.025,1.004,-32.000,-12.000,-74.000,-0.061,-0.122,0.061,-0.01,-0.02,0.01
0.006,-0.024,1.004,-33.000,-13.000,-72.000,0.000,-0.122,0.000,-0.01,-0.02,0.01
0.007,-0.026,1.005,-33.000,-13.000,-72.000,0.000,-0.122,0.000,-0.01,-0.03,0.01
0.009,-0.027,1.005,-33.000,-13.000,-72.000,0.061,-0.122,0.061,-0.01,-0.03,0.01
0.009,-0.027,1.005,-33.000,-13.000,-72.000,0.000,-0.061,0.061,-0.01,-0.03,0.01
0.008,-0.025,1.005,-33.000,-13.000,-72.000,0.000,-0.122,0.061,-0.01,-0.03,0.01
0.007,-0.025,1.004,-33.000,-13.000,-72.000,0.000,-0.183,0.000,-0.01,-0.02,0.01
0.007,-0.026,1.005,-32.000,-11.000,-74.000,0.000,-0.122,0.061,-0.01,-0.03,0.01
0.009,-0.028,1.006,-32.000,-11.000,-74.000,0.000,-0.122,0.000,-0.01,-0.03,0.01
0.009,-0.026,1.004,-32.000,-11.000,-74.000,0.000,-0.061,0.000,-0.01,-0.03,0.01
0.007,-0.024,1.005,-32.000,-11.000,-74.000,0.000,-0.122,0.061,-0.01,-0.02,0.01
0.007,-0.025,1.005,-32.000,-11.000,-74.000,0.000,-0.122,0.000,-0.01,-0.03,0.01
0.008,-0.028,1.006,-34.000,-11.000,-75.000,0.000,-0.061,0.061,-0.01,-0.03,0.01
0.008,-0.028,1.006,-34.000,-11.000,-75.000,0.000,-0.122,0.061,-0.01,-0.03,0.01
0.008,-0.026,1.005,-34.000,-11.000,-75.000,0.000,-0.122,0.000,-0.01,-0.03,0.01
0.007,-0.026,1.005,-34.000,-11.000,-75.000,-0.061,-0.122,0.000,-0.01,-0.03,0.01
0.008,-0.026,1.005,-34.000,-11.000,-75.000,0.000,-0.122,0.000,-0.01,-0.03,0.01
0.009,-0.026,1.005,-33.000,-14.000,-78.000,-0.061,-0.122,0.061,-0.01,-0.02,0.01
0.008,-0.026,1.006,-33.000,-14.000,-78.000,-0.122,-0.122,0.000,-0.01,-0.03,0.01
0.007,-0.025,1.005,-33.000,-14.000,-78.000,-0.061,-0.061,0.061,-0.01,-0.02,0.01
0.009,-0.026,1.005,-33.000,-14.000,-78.000,0.000,-0.122,0.061,-0.01,-0.03,0.01
0.008,-0.025,1.005,-33.000,-14.000,-78.000,0.000,-0.183,0.000,-0.01,-0.02,0.01
0.008,-0.025,1.004,-32.000,-11.000,-72.000,0.000,-0.122,0.061,-0.01,-0.03,0.01
0.008,-0.025,1.005,-32.000,-11.000,-72.000,-0.061,-0.122,0.000,-0.01,-0.03,0.01
0.007,-0.025,1.005,-32.000,-11.000,-72.000,0.000,-0.122,0.000,-0.01,-0.03,0.01
0.009,-0.025,1.006,-32.000,-11.000,-72.000,0.000,-0.122,0.061,-0.01,-0.03,0.01
0.008,-0.026,1.006,-32.000,-11.000,-72.000,0.000,-0.122,0.061,-0.01,-0.03,0.01
0.008,-0.026,1.004,-32.000,-11.000,-72.000,0.000,-0.122,0.061,-0.01,-0.03,0.01
0.008,-0.026,1.005,-32.000,-11.000,-71.000,-0.061,-0.061,0.000,-0.01,-0.03,0.01
0.008,-0.024,1.005,-32.000,-11.000,-71.000,-0.061,-0.122,0.000,-0.01,-0.03,0.01
0.009,-0.026,1.004,-32.000,-11.000,-71.000,0.000,-0.122,0.061,-0.01,-0.03,0.01
0.009,-0.026,1.005,-32.000,-11.000,-71.000,0.000,-0.061,0.061,-0.01,-0.03,0.01
0.009,-0.026,1.005,-32.000,-11.000,-71.000,-0.061,-0.122,0.000,-0.01,-0.03,0.01
0.008,-0.025,1.005,-32.000,-12.000,-71.000,-0.061,-0.061,0.061,-0.01,-0.02,0.01
0.008,-0.024,1.005,-32.000,-12.000,-71.000,-0.061,-0.061,0.000,-0.01,-0.02,0.01
0.009,-0.025,1.005,-32.000,-12.000,-71.000,0.000,-0.122,0.061,-0.01,-0.02,0.01
0.008,-0.025,1.004,-32.000,-12.000,-71.000,0.000,-0.122,0.061,-0.01,-0.03,0.01
0.007,-0.025,1.003,-32.000,-12.000,-71.000,-0.061,-0.061,0.061,-0.01,-0.02,0.01
0.008,-0.026,1.005,-30.000,-11.000,-79.000,-0.061,-0.061,0.061,-0.01,-0.03,0.01
0.008,-0.026,1.005,-30.000,-11.000,-79.000,0.000,-0.183,0.122,-0.01,-0.03,0.01
0.009,-0.026,1.004,-30.000,-11.000,-79.000,0.061,-0.122,0.000,-0.01,-0.03,0.01
0.008,-0.025,1.004,-30.000,-11.000,-79.000,-0.061,-0.183,0.000,-0.01,-0.03,0.01
0.008,-0.025,1.006,-30.000,-11.000,-79.000,0.000,-0.122,0.122,-0.01,-0.02,0.01
0.007,-0.025,1.006,-33.000,-12.000,-75.000,-0.061,-0.061,0.122,-0.01,-0.02,0.01
0.008,-0.026,1.005,-33.000,-12.000,-75.000,-0.061,-0.061,0.061,-0.01,-0.03,0.01
0.008,-0.026,1.006,-33.000,-12.000,-75.000,0.000,-0.122,0.061,-0.01,-0.02,0.01
0.008,-0.025,1.005,-33.000,-12.000,-75.000,0.000,-0.122,0.000,-0.01,-0.03,0.01
0.008,-0.025,1.005,-33.000,-12.000,-75.000,0.000,-0.183,0.061,-0.01,-0.02,0.01
0.008,-0.026,1.005,-33.000,-12.000,-75.000,-0.061,-0.122,0.000,-0.01,-0.03,0.01
0.007,-0.026,1.005,-32.000,-14.000,-73.000,-0.061,-0.122,0.000,-0.01,-0.03,0.01
0.007,-0.025,1.005,-32.000,-14.000,-73.000,0.000,-0.183,0.000,-0.01,-0.02,0.01
0.008,-0.025,1.005,-32.000,-14.000,-73.000,-0.061,-0.183,0.000,-0.01,-0.03,0.01
0.009,-0.026,1.005,-32.000,-14.000,-73.000,-0.061,-0.122,0.061,-0.01,-0.03,0.01
0.008,-0.026,1.006,-32.000,-14.000,-73.000,-0.061,-0.183,0.000,-0.01,-0.03,0.01
0.008,-0.026,1.006,-31.000,-12.000,-71.000,0.000,-0.122,0.000,-0.01,-0.02,0.01
0.008,-0.024,1.005,-31.000,-12.000,-71.000,0.000,-0.183,0.061,-0.01,-0.02,0.01
0.006,-0.026,1.006,-31.000,-12.000,-71.000,0.000,-0.122,0.061,-0.01,-0.03,0.01
0.008,-0.026,1.004,-31.000,-12.000,-71.000,0.061,-0.122,0.000,-0.01,-0.03,0.01
0.008,-0.026,1.005,-31.000,-12.000,-71.000,-0.061,-0.122,0.000,-0.01,-0.03,0.01
0.008,-0.026,1.007,-30.000,-11.000,-77.000,-0.061,-0.061,0.000,-0.01,-0.03,0.01
0.007,-0.026,1.004,-30.000,-11.000,-77.000,0.000,-0.122,0.000,-0.01,-0.02,0.01
0.008,-0.025,1.003,-30.000,-11.000,-77.000,-0.061,-0.122,0.061,-0.01,-0.02,0.01
0.007,-0.026,1.006,-30.000,-11.000,-77.000,-0.122,-0.122,0.061,-0.01,-0.03,0.01
0.007,-0.026,1.006,-30.000,-11.000,-77.000,-0.061,-0.122,0.061,-0.01,-0.02,0.01
0.008,-0.025,1.005,-31.000,-11.000,-74.000,-0.061,-0.183,0.061,-0.01,-0.02,0.01
0.009,-0.026,1.005,-31.000,-11.000,-74.000,-0.061,-0.122,0.000,-0.01,-0.03,0.01
0.008,-0.024,1.004,-31.000,-11.000,-74.000,-0.061,-0.122,0.000,-0.01,-0.02,0.01
0.008,-0.024,1.005,-31.000,-11.000,-74.000,-0.061,-0.183,0.122,-0.01,-0.02,0.01
0.008,-0.026,1.005,-31.000,-11.000,-74.000,-0.061,-0.183,0.122,-0.01,-0.02,0.01
0.008,-0.026,1.005,-32.000,-10.000,-73.000,-0.061,-0.122,0.000,-0.01,-0.03,0.01
0.009,-0.026,1.005,-32.000,-10.000,-73.000,0.000,-0.061,0.000,-0.01,-0.03,0.01
0.008,-0.026,1.005,-32.000,-10.000,-73.000,-0.061,-0.122,0.000,-0.01,-0.03,0.01
0.009,-0.025,1.007,-32.000,-10.000,-73.000,0.000,-0.061,0.000,-0.01,-0.03,0.01
0.008,-0.026,1.003,-32.000,-10.000,-73.000,-0.061,-0.183,0.000,-0.01,-0.03,0.01
0.007,-0.026,1.004,-32.000,-10.000,-73.000,-0.061,-0.122,0.000,-0.01,-0.03,0.01
0.006,-0.026,1.006,-32.000,-9.000,-72.000,0.061,-0.122,0.000,-0.01,-0.02,0.01
0.008,-0.026,1.003,-32.000,-9.000,-72.000,0.000,-0.122,0.061,-0.01,-0.03,0.01
0.008,-0.026,1.004,-32.000,-9.000,-72.000,-0.061,-0.061,0.000,-0.01,-0.03,0.01
0.009,-0.026,1.005,-32.000,-9.000,-72.000,0.000,-0.122,0.000,-0.01,-0.03,0.01
0.007,-0.026,1.006,-32.000,-9.000,-72.000,0.000,-0.183,0.000,-0.01,-0.03,0.01
0.009,-0.026,1.006,-32.000,-12.000,-72.000,-0.061,-0.122,0.061,-0.01,-0.03,0.01
0.007,-0.025,1.004,-32.000,-12.000,-72.000,0.000,-0.061,0.061,-0.01,-0.02,0.01
0.008,-0.025,1.005,-32.000,-12.000,-72.000,0.000,-0.061,0.061,-0.01,-0.03,0.01
0.009,-0.026,1.005,-32.000,-12.000,-72.000,0.000,-0.183,0.061,-0.01,-0.03,0.01
0.009,-0.025,1.006,-32.000,-12.000,-72.000,0.000,-0.183,0.061,-0.01,-0.02,0.01
0.008,-0.026,1.004,-31.000,-12.000,-76.000,-0.061,-0.061,0.000,-0.01,-0.03,0.01
0.007,-0.026,1.006,-31.000,-12.000,-76.000,-0.061,-0.122,0.000,-0.01,-0.03,0.01
0.009,-0.025,1.005,-31.000,-12.000,-76.000,-0.061,-0.122,0.061,-0.01,-0.03,0.01
0.009,-0.025,1.005,-31.000,-12.000,-76.000,-0.061,-0.183,0.061,-0.01,-0.02,0.01
0.009,-0.025,1.007,-31.000,-12.000,-76.000,0.000,-0.122,0.122,-0.01,-0.03,0.01
0.008,-0.026,1.004,-32.000,-10.000,-73.000,-0.061,-0.061,0.122,-0.01,-0.03,0.01
0.008,-0.025,1.005,-32.000,-10.000,-73.000,-0.061,-0.122,0.122,-0.01,-0.03,0.01
0.009,-0.026,1.004,-32.000,-10.000,-73.000,-0.061,-0.122,0.000,-0.01,-0.03,0.01
0.007,-0.025,1.004,-32.000,-10.000,-73.000,-0.061,-0.122,0.000,-0.01,-0.02,0.01
0.007,-0.026,1.006,-32.000,-10.000,-73.000,0.000,-0.122,0.061,-0.01,-0.03,0.01
0.009,-0.027,1.005,-32.000,-10.000,-73.000,0.000,-0.183,0.061,-0.01,-0.03,0.01
0.007,-0.026,1.005,-32.000,-13.000,-77.000,0.061,-0.183,0.061,-0.01,-0.03,0.01
0.009,-0.025,1.007,-32.000,-13.000,-77.000,0.061,-0.122,0.000,-0.01,-0.03,0.01
0.008,-0.025,1.005,-32.000,-13.000,-77.000,0.000,-0.061,0.000,-0.01,-0.02,0.01
0.008,-0.025,1.004,-32.000,-13.000,-77.000,-0.061,0.000,0.000,-0.01,-0.03,0.01
0.008,-0.026,1.007,-32.000,-13.000,-77.000,0.000,-0.061,0.000,-0.01,-0.03,0.01
0.008,-0.026,1.002,-34.000,-11.000,-75.000,-0.122,-0.122,0.000,-0.01,-0.03,0.01
0.008,-0.026,1.005,-34.000,-11.000,-75.000,0.000,-0.122,0.061,-0.01,-0.03,0.01
0.010,-0.026,1.006,-34.000,-11.000,-75.000,0.000,-0.122,0.061,-0.01,-0.03,0.01
0.009,-0.026,1.005,-34.000,-11.000,-75.000,-0.061,-0.122,0.000,-0.01,-0.03,0.01
0.007,-0.025,1.005,-34.000,-11.000,-75.000,0.000,-0.183,0.000,-0.01,-0.03,0.01
0.008,-0.024,1.005,-31.000,-11.000,-76.000,-0.061,-0.122,0.061,-0.01,-0.02,0.01
0.008,-0.027,1.007,-31.000,-11.000,-76.000,0.000,-0.122,0.061,-0.01,-0.03,0.01
0.009,-0.027,1.005,-31.000,-11.000,-76.000,0.000,-0.122,0.061,-0.01,-0.03,0.01
0.007,-0.025,1.002,-31.000,-11.000,-76.000,-0.061,-0.122,-0.061,-0.01,-0.03,0.01
0.008,-0.026,1.007,-31.000,-11.000,-76.000,-0.061,-0.122,0.000,-0.01,-0.02,0.01
0.009,-0.027,1.005,-31.000,-13.000,-73.000,0.061,-0.183,0.061,-0.01,-0.03,0.01
0.008,-0.026,1.006,-31.000,-13.000,-73.000,0.000,-0.122,0.061,-0.01,-0.03,0.01
0.008,-0.025,1.007,-31.000,-13.000,-73.000,0.000,-0.183,0.061,-0.01,-0.03,0.01
0.007,-0.025,1.006,-31.000,-13.000,-73.000,-0.061,-0.122,0.061,-0.01,-0.03,0.01
0.006,-0.026,1.004,-31.000,-13.000,-73.000,0.000,-0.122,0.061,-0.01,-0.03,0.01
0.010,-0.026,1.005,-31.000,-13.000,-73.000,0.000,-0.183,0.000,-0.01,-0.03,0.01
0.008,-0.026,1.006,-30.000,-12.000,-72.000,0.000,-0.122,0.000,-0.01,-0.03,0.01
0.006,-0.024,1.007,-30.000,-12.000,-72.000,0.000,-0.061,-0.061,-0.01,-0.02,0.01
0.009,-0.026,1.004,-30.000,-12.000,-72.000,0.061,-0.061,0.000,-0.01,-0.02,0.01
0.009,-0.029,1.006,-30.000,-12.000,-72.000,0.000,-0.122,0.061,-0.01,-0.03,0.01
0.009,-0.026,1.006,-30.000,-12.000,-72.000,0.000,-0.122,0.061,-0.01,-0.03,0.01
0.007,-0.024,1.003,-33.000,-10.000,-75.000,-0.061,-0.061,0.061,-0.01,-0.02,0.01
0.007,-0.025,1.005,-33.000,-10.000,-75.000,0.000,-0.061,0.000,-0.01,-0.03,0.01
0.008,-0.025,1.006,-33.000,-10.000,-75.000,0.000,-0.183,0.000,-0.01,-0.02,0.01
0.008,-0.026,1.005,-33.000,-10.000,-75.000,-0.061,-0.122,0.000,-0.01,-0.03,0.01
0.007,-0.026,1.006,-33.000,-10.000,-75.000,0.000,-0.061,0.000,-0.01,-0.02,0.01
0.010,-0.026,1.004,-35.000,-10.000,-74.000,0.000,-0.061,0.000,-0.01,-0.03,0.01
0.007,-0.026,1.004,-35.000,-10.000,-74.000,0.000,-0.061,0.000,-0.01,-0.03,0.01
0.009,-0.026,1.004,-35.000,-10.000,-74.000,0.000,-0.061,0.000,-0.01,-0.03,0.01
0.009,-0.027,1.003,-35.000,-10.000,-74.000,0.000,-0.122,0.061,-0.01,-0.03,0.01
0.008,-0.025,1.005,-35.000,-10.000,-74.000,0.000,-0.122,0.000,-0.01,-0.03,0.01
0.008,-0.026,1.007,-33.000,-11.000,-73.000,0.000,-0.122,0.061,-0.01,-0.03,0.01
0.009,-0.027,1.005,-33.000,-11.000,-73.000,-0.061,-0.122,0.061,-0.01,-0.03,0.01
0.008,-0.026,1.003,-33.000,-11.000,-73.000,-0.061,-0.061,0.000,-0.01,-0.03,0.01
0.008,-0.025,1.006,-33.000,-11.000,-73.000,-0.061,-0.122,0.000,-0.01,-0.02,0.01
0.009,-0.026,1.005,-33.000,-11.000,-73.000,-0.061,-0.061,0.061,-0.01,-0.03,0.01
0.006,-0.025,1.005,-30.000,-12.000,-71.000,0.000,-0.183,0.061,-0.01,-0.03,0.01
0.009,-0.026,1.006,-30.000,-12.000,-71.000,0.000,-0.183,0.061,-0.01,-0.03,0.01
0.006,-0.026,1.005,-30.000,-12.000,-71.000,-0.061,-0.061,0.000,-0.01,-0.03,0.01
0.008,-0.025,1.006,-30.000,-12.000,-71.000,-0.061,-0.122,0.061,-0.01,-0.02,0.01
0.008,-0.026,1.004,-30.000,-12.000,-71.000,0.000,-0.122,0.000,-0.01,-0.03,0.01
0.007,-0.025,1.003,-30.000,-12.000,-71.000,0.000,-0.122,0.000,-0.01,-0.02,0.01
0.008,-0.025,1.004,-33.000,-12.000,-76.000,0.000,-0.122,0.000,-0.01,-0.02,0.01
0.006,-0.025,1.007,-33.000,-12.000,-76.000,0.000,-0.183,0.000,-0.01,-0.02,0.01
0.008,-0.028,1.005,-33.000,-12.000,-76.000,-0.061,-0.122,0.061,-0.01,-0.03,0.01
0.011,-0.026,1.003,-33.000,-12.000,-76.000,0.000,-0.122,0.061,-0.01,-0.03,0.01
0.008,-0.025,1.004,-33.000,-12.000,-76.000,0.000,-0.122,0.000,-0.01,-0.02,0.01
0.008,-0.025,1.005,-29.000,-10.000,-75.000,0.000,-0.122,0.000,-0.01,-0.02,0.01
0.011,-0.027,1.005,-29.000,-10.000,-75.000,-0.061,-0.183,0.061,-0.01,-0.02,0.01
0.009,-0.026,1.005,-29.000,-10.000,-75.000,-0.061,-0.183,-0.061,-0.01,-0.03,0.01
0.008,-0.025,1.005,-29.000,-10.000,-75.000,0.000,-0.122,0.000,-0.01,-0.02,0.01
0.007,-0.026,1.005,-29.000,-10.000,-75.000,0.000,-0.122,0.061,-0.01,-0.03,0.01
0.008,-0.026,1.006,-34.000,-11.000,-71.000,0.000,-0.183,0.000,-0.01,-0.03,0.01
0.009,-0.026,1.003,-34.000,-11.000,-71.000,-0.061,-0.183,0.061,-0.01,-0.03,0.01
0.008,-0.025,1.005,-34.000,-11.000,-71.000,-0.122,-0.122,-0.061,-0.01,-0.03,0.01
0.008,-0.024,1.005,-34.000,-11.000,-71.000,-0.061,-0.122,0.061,-0.01,-0.02,0.01
0.009,-0.026,1.006,-34.000,-11.000,-71.000,0.000,-0.122,0.061,-0.01,-0.03,0.01
0.009,-0.028,1.004,-32.000,-12.000,-75.000,0.000,-0.122,0.061,-0.01,-0.03,0.01
0.008,-0.026,1.006,-32.000,-12.000,-75.000,0.000,-0.061,-0.061,-0.01,-0.03,0.01
0.007,-0.025,1.005,-32.000,-12.000,-75.000,-0.061,-0.061,0.000,-0.01,-0.02,0.01
0.006,-0.025,1.004,-32.000,-12.000,-75.000,0.000,-0.122,-0.061,-0.01,-0.03,0.01
0.009,-0.025,1.004,-32.000,-12.000,-75.000,-0.061,-0.183,0.122,-0.01,-0.02,0.01
0.009,-0.026,1.005,-32.000,-12.000,-75.000,-0.061,-0.183,0.061,-0.01,-0.03,0.01
0.008,-0.027,1.006,-31.000,-12.000,-75.000,-0.061,-0.122,0.061,-0.01,-0.03,0.01
0.008,-0.027,1.003,-31.000,-12.000,-75.000,-0.061,-0.122,0.000,-0.01,-0.03,0.01
0.008,-0.025,1.006,-31.000,-12.000,-75.000,0.000,-0.122,0.122,-0.01,-0.03,0.01
0.007,-0.024,1.006,-31.000,-12.000,-75.000,0.000,-0.122,0.122,-0.01,-0.02,0.01
0.009,-0.026,1.005,-31.000,-12.000,-75.000,0.000,-0.122,0.000,-0.01,-0.03,0.01
0.009,-0.026,1.005,-31.000,-10.000,-72.000,0.000,-0.122,0.122,-0.01,-0.03,0.01
0.009,-0.026,1.004,-31.000,-10.000,-72.000,-0.061,-0.122,0.061,-0.01,-0.03,0.01
0.007,-0.026,1.006,-31.000,-10.000,-72.000,0.000,-0.122,0.061,-0.01,-0.03,0.01
0.007,-0.026,1.005,-31.000,-10.000,-72.000,0.000,-0.183,0.061,-0.01,-0.03,0.01
0.008,-0.026,1.004,-31.000,-10.000,-72.000,0.061,-0.183,0.122,-0.01,-0.02,0.01
0.008,-0.026,1.005,-32.000,-12.000,-77.000,-0.061,-0.061,0.000,-0.01,-0.03,0.01
0.007,-0.025,1.007,-32.000,-12.000,-77.000,-0.061,-0.122,0.061,-0.01,-0.03,0.01
0.008,-0.026,1.006,-32.000,-12.000,-77.000,-0.061,-0.122,0.000,-0.01,-0.03,0.01
0.007,-0.025,1.004,-32.000,-12.000,-77.000,0.000,-0.122,0.000,-0.01,-0.02,0.01
0.008,-0.025,1.005,-32.000,-12.000,-77.000,0.000,-0.061,0.061,-0.01,-0.03,0.01
0.007,-0.025,1.005,-33.000,-11.000,-73.000,0.000,-0.122,0.122,-0.01,-0.03,0.01
0.008,-0.026,1.006,-33.000,-11.000,-73.000,0.000,-0.122,0.061,-0.01,-0.03,0.01
0.009,-0.027,1.005,-33.000,-11.000,-73.000,0.000,-0.122,0.061,-0.01,-0.03,0.01
0.008,-0.025,1.006,-33.000,-11.000,-73.000,0.000,-0.122,0.000,-0.01,-0.03,0.01
0.008,-0.025,1.005,-33.000,-11.000,-73.000,0.000,-0.061,0.061,-0.01,-0.02,0.01
0.009,-0.026,1.006,-33.000,-11.000,-73.000,-0.061,-0.061,0.061,-0.01,-0.03,0.01
0.008,-0.026,1.005,-32.000,-12.000,-78.000,0.000,-0.122,0.000,-0.01,-0.03,0.01
0.009,-0.026,1.004,-32.000,-12.000,-78.000,0.000,-0.061,0.000,-0.01,-0.03,0.01
0.007,-0.025,1.005,-32.000,-12.000,-78.000,0.000,-0.061,0.061,-0.01,-0.02,0.01
0.007,-0.025,1.005,-32.000,-12.000,-78.000,-0.061,-0.122,0.061,-0.01,-0.02,0.01
0.009,-0.026,1.006,-32.000,-12.000,-78.000,0.000,-0.183,0.000,-0.01,-0.03,0.01
0.006,-0.026,1.005,-32.000,-11.000,-71.000,0.000,-0.122,0.061,-0.01,-0.03,0.01
0.009,-0.027,1.004,-32.000,-11.000,-71.000,-0.061,-0.183,0.061,-0.01,-0.03,0.01
0.009,-0.026,1.005,-32.000,-11.000,-71.000,-0.061,-0.122,0.000,-0.01,-0.03,0.01
0.008,-0.026,1.005,-32.000,-11.000,-71.000,0.000,-0.061,0.000,-0.01,-0.03,0.01
0.008,-0.026,1.004,-32.000,-11.000,-71.000,0.000,-0.061,0.061,-0.01,-0.03,0.01
0.008,-0.025,1.006,-33.000,-11.000,-77.000,-0.061,-0.122,0.061,-0.01,-0.03,0.01
0.009,-0.026,1.004,-33.000,-11.000,-77.000,0.000,-0.122,0.000,-0.01,-0.03,0.01
0.008,-0.026,1.005,-33.000,-11.000,-77.000,0.000,-0.122,0.000,-0.01,-0.03,0.01
0.007,-0.026,1.004,-33.000,-11.000,-77.000,-0.061,-0.122,0.000,-0.01,-0.03,0.01
0.008,-0.026,1.006,-33.000,-11.000,-77.000,-0.061,-0.122,0.000,-0.01,-0.03,0.01
0.009,-0.027,1.006,-33.000,-10.000,-74.000,-0.061,-0.122,0.000,-0.01,-0.03,0.01
0.009,-0.026,1.005,-33.000,-10.000,-74.000,0.000,-0.122,0.000,-0.01,-0.03,0.01
0.009,-0.026,1.005,-33.000,-10.000,-74.000,0.061,-0.122,0.061,-0.01,-0.03,0.01
0.008,-0.025,1.005,-33.000,-10.000,-74.000,0.000,-0.122,0.122,-0.01,-0.03,0.01
0.007,-0.026,1.005,-33.000,-10.000,-74.000,-0.061,-0.122,0.000,-0.01,-0.03,0.01
0.008,-0.025,1.006,-33.000,-10.000,-74.000,0.000,-0.122,-0.061,-0.01,-0.03,0.01
0.008,-0.024,1.006,-34.000,-13.000,-77.000,0.000,-0.122,0.000,-0.01,-0.02,0.01
0.009,-0.026,1.004,-34.000,-13.000,-77.000,-0.061,-0.183,0.061,-0.01,-0.03,0.01
0.009,-0.026,1.005,-34.000,-13.000,-77.000,-0.061,-0.183,0.122,-0.01,-0.03,0.01
0.008,-0.026,1.004,-34.000,-13.000,-77.000,-0.061,-0.122,0.061,-0.01,-0.03,0.01
0.008,-0.027,1.004,-34.000,-13.000,-77.000,-0.061,-0.122,0.061,-0.01,-0.03,0.01
0.008,-0.026,1.005,-31.000,-12.000,-72.000,0.000,-0.122,0.061,-0.01,-0.03,0.01
0.008,-0.026,1.005,-31.000,-12.000,-72.000,-0.061,-0.183,0.061,-0.01,-0.02,0.01
0.007,-0.027,1.005,-31.000,-12.000,-72.000,-0.061,-0.061,0.061,-0.01,-0.03,0.01
0.008,-0.026,1.005,-31.000,-12.000,-72.000,0.000,-0.122,0.122,-0.01,-0.02,0.01
0.009,-0.026,1.005,-31.000,-12.000,-72.000,0.000,-0.183,0.061,-0.01,-0.03,0.01
0.010,-0.026,1.004,-34.000,-12.000,-76.000,0.000,-0.183,0.061,-0.01,-0.02,0.01
0.009,-0.025,1.005,-34.000,-12.000,-76.000,-0.061,-0.183,0.000,-0.01,-0.03,0.01
0.008,-0.026,1.006,-34.000,-12.000,-76.000,0.000,-0.122,0.061,-0.01,-0.03,0.01
0.009,-0.027,1.006,-34.000,-12.000,-76.000,0.000,-0.061,0.061,-0.01,-0.03,0.01
0.009,-0.026,1.005,-34.000,-12.000,-76.000,0.000,-0.061,0.061,-0.01,-0.03,0.01
0.008,-0.025,1.005,-30.000,-10.000,-76.000,-0.061,-0.122,0.000,-0.01,-0.02,0.01
0.008,-0.024,1.005,-30.000,-10.000,-76.000,0.000,-0.183,0.061,-0.01,-0.02,0.01
0.008,-0.025,1.004,-30.000,-10.000,-76.000,-0.061,-0.122,0.000,-0.01,-0.03,0.01
0.008,-0.027,1.005,-30.000,-10.000,-76.000,0.000,-0.122,0.000,-0.01,-0.03,0.01
0.008,-0.026,1.004,-30.000,-10.000,-76.000,-0.061,-0.061,0.000,-0.01,-0.03,0.01
0.007,-0.025,1.006,-31.000,-10.000,-73.000,-0.061,-0.061,0.000,-0.01,-0.03,0.01
0.009,-0.026,1.006,-31.000,-10.000,-73.000,0.061,-0.122,0.000,-0.01,-0.03,0.01
0.010,-0.025,1.003,-31.000,-10.000,-73.000,-0.061,-0.122,0.000,-0.01,-0.03,0.01
0.009,-0.024,1.006,-31.000,-10.000,-73.000,-0.061,-0.061,0.000,-0.01,-0.02,0.01
0.007,-0.025,1.007,-31.000,-10.000,-73.000,-0.061,-0.122,0.000,-0.01,-0.02,0.01
0.008,-0.028,1.004,-31.000,-10.000,-73.000,-0.061,-0.122,0.000,-0.01,-0.03,0.01
0.009,-0.027,1.005,-31.000,-12.000,-71.000,-0.061,-0.122,0.000,-0.01,-0.03,0.01
0.008,-0.025,1.005,-31.000,-12.000,-71.000,0.000,-0.122,-0.061,-0.01,-0.03,0.01
0.008,-0.025,1.005,-31.000,-12.000,-71.000,-0.061,-0.122,0.000,-0.01,-0.02,0.01
0.008,-0.026,1.006,-31.000,-12.000,-71.000,0.000,-0.061,0.061,-0.01,-0.03,0.01
0.010,-0.027,1.005,-31.000,-12.000,-71.000,0.000,-0.061,0.061,-0.01,-0.03,0.01
0.009,-0.026,1.005,-32.000,-11.000,-76.000,0.000,-0.183,0.061,-0.01,-0.03,0.01
0.008,-0.025,1.004,-32.000,-11.000,-76.000,0.000,-0.122,0.000,-0.01,-0.02,0.01
0.008,-0.027,1.007,-32.000,-11.000,-76.000,0.000,-0.061,0.061,-0.01,-0.03,0.01
0.009,-0.026,1.005,-32.000,-11.000,-76.000,0.000,-0.122,0.061,-0.01,-0.03,0.01
0.009,-0.026,1.004,-32.000,-11.000,-76.000,0.000,-0.122,0.061,-0.01,-0.02,0.01
0.009,-0.026,1.005,-35.000,-9.000,-73.000,-0.061,-0.061,0.061,-0.01,-0.03,0.01
0.008,-0.025,1.005,-35.000,-9.000,-73.000,0.000,-0.061,0.061,-0.01,-0.02,0.01
0.009,-0.026,1.005,-35.000,-9.000,-73.000,-0.122,-0.122,0.061,-0.01,-0.03,0.01
0.009,-0.026,1.004,-35.000,-9.000,-73.000,-0.061,-0.122,0.000,-0.01,-0.03,0.01
0.008,-0.025,1.004,-35.000,-9.000,-73.000,0.000,-0.122,0.000,-0.01,-0.02,0.01
0.007,-0.027,1.005,-33.000,-10.000,-73.000,-0.061,-0.122,0.000,-0.01,-0.03,0.01
0.009,-0.026,1.005,-33.000,-10.000,-73.000,-0.061,-0.122,0.000,-0.01,-0.03,0.01
0.010,-0.026,1.004,-33.000,-10.000,-73.000,0.000,-0.183,0.061,-0.01,-0.03,0.01
0.008,-0.026,1.004,-33.000,-10.000,-73.000,0.000,-0.122,0.061,-0.01,-0.03,0.01
0.008,-0.025,1.005,-33.000,-10.000,-73.000,-0.061,-0.122,0.122,-0.01,-0.03,0.01
0.009,-0.026,1.006,-33.000,-10.000,-73.000,-0.061,-0.122,0.061,-0.01,-0.03,0.01
0.009,-0.026,1.005,-32.000,-11.000,-71.000,-0.061,-0.122,0.061,-0.01,-0.03,0.01
0.009,-0.026,1.005,-32.000,-11.000,-71.000,-0.122,-0.061,0.061,-0.01,-0.03,0.01
0.009,-0.026,1.005,-32.000,-11.000,-71.000,-0.061,-0.061,0.061,-0.01,-0.03,0.01
0.008,-0.025,1.005,-32.000,-11.000,-71.000,0.000,-0.122,0.061,-0.01,-0.02,0.01
0.009,-0.026,1.004,-32.000,-11.000,-71.000,-0.061,-0.122,0.000,-0.01,-0.03,0.01
0.008,-0.026,1.005,-31.000,-11.000,-70.000,-0.061,-0.061,0.061,-0.01,-0.03,0.01
0.008,-0.026,1.005,-31.000,-11.000,-70.000,-0.061,-0.061,0.061,-0.01,-0.02,0.01
0.011,-0.026,1.006,-31.000,-11.000,-70.000,-0.061,-0.122,0.000,-0.01,-0.03,0.01
0.010,-0.026,1.006,-31.000,-11.000,-70.000,-0.061,-0.183,0.000,-0.01,-0.03,0.01
0.008,-0.026,1.005,-31.000,-11.000,-70.000,-0.061,-0.122,0.000,-0.01,-0.03,0.01
0.007,-0.025,1.004,-32.000,-12.000,-73.000,-0.061,-0.183,0.061,-0.01,-0.02,0.01
0.008,-0.026,1.007,-32.000,-12.000,-73.000,0.000,-0.122,0.000,-0.01,-0.03,0.01
0.010,-0.027,1.006,-32.000,-12.000,-73.000,0.000,-0.122,0.000,-0.01,-0.03,0.01
0.008,-0.026,1.005,-32.000,-12.000,-73.000,-0.061,-0.061,0.000,-0.01,-0.03,0.01
0.008,-0.026,1.004,-32.000,-12.000,-73.000,-0.061,-0.122,0.061,-0.01,-0.03,0.01
0.009,-0.027,1.005,-33.000,-11.000,-73.000,0.000,-0.122,0.061,-0.01,-0.03,0.01
0.009,-0.025,1.006,-33.000,-11.000,-73.000,0.000,-0.122,0.061,-0.01,-0.02,0.01
0.009,-0.025,1.006,-33.000,-11.000,-73.000,-0.061,-0.122,0.000,-0.01,-0.02,0.01
0.009,-0.025,1.005,-33.000,-11.000,-73.000,-0.061,-0.122,0.000,-0.01,-0.03,0.01
0.007,-0.025,1.005,-33.000,-11.000,-73.000,0.000,-0.122,0.122,-0.01,-0.02,0.01
0.008,-0.025,1.005,-33.000,-11.000,-73.000,-0.061,-0.122,0.061,-0.01,-0.02,0.01
0.008,-0.026,1.005,-31.000,-10.000,-71.000,0.000,-0.122,0.000,-0.01,-0.03,0.01
0.008,-0.026,1.004,-31.000,-10.000,-71.000,0.000,-0.122,0.000,-0.01,-0.03,0.01
0.009,-0.025,1.005,-31.000,-10.000,-71.000,0.061,-0.061,0.061,-0.01,-0.02,0.01
0.007,-0.024,1.005,-31.000,-10.000,-71.000,0.000,-0.061,0.061,-0.01,-0.02,0.01
0.008,-0.025,1.005,-31.000,-10.000,-71.000,0.061,-0.183,0.000,-0.01,-0.03,0.01
0.009,-0.026,1.005,-35.000,-10.000,-72.000,0.061,-0.122,0.000,-0.01,-0.03,0.01
0.009,-0.025,1.006,-35.000,-10.000,-72.000,-0.061,-0.122,0.000,-0.01,-0.02,0.01
0.008,-0.026,1.004,-35.000,-10.000,-72.000,-0.061,-0.122,0.000,-0.01,-0.03,0.01
0.008,-0.026,1.004,-35.000,-10.000,-72.000,0.000,-0.122,0.061,-0.01,-0.02,0.01
0.008,-0.025,1.005,-35.000,-10.000,-72.000,0.061,-0.122,0.000,-0.01,-0.03,0.01
0.009,-0.026,1.005,-31.000,-11.000,-77.000,0.000,-0.122,0.061,-0.01,-0.03,0.01
0.008,-0.026,1.005,-31.000,-11.000,-77.000,0.000,-0.122,0.061,-0.01,-0.03,0.01
0.008,-0.025,1.005,-31.000,-11.000,-77.000,0.000,-0.183,0.061,-0.01,-0.03,0.01
0.008,-0.025,1.005,-31.000,-11.000,-77.000,-0.061,-0.122,0.000,-0.01,-0.03,0.01
0.010,-0.026,1.005,-31.000,-11.000,-77.000,0.000,-0.061,0.000,-0.01,-0.03,0.01
0.007,-0.026,1.005,-31.000,-12.000,-71.000,0.000,-0.122,0.000,-0.01,-0.03,0.01
0.007,-0.025,1.005,-31.000,-12.000,-71.000,0.000,-0.183,0.061,-0.01,-0.02,0.01
0.008,-0.026,1.005,-31.000,-12.000,-71.000,-0.061,-0.122,0.122,-0.01,-0.03,0.01
0.007,-0.026,1.005,-31.000,-12.000,-71.000,-0.122,-0.122,0.061,-0.01,-0.02,0.01
0.008,-0.026,1.005,-31.000,-12.000,-71.000,0.000,-0.122,0.061,-0.01,-0.03,0.01
0.008,-0.026,1.005,-31.000,-12.000,-71.000,0.000,-0.122,0.061,-0.01,-0.02,0.01
0.008,-0.026,1.005,-32.000,-12.000,-75.000,0.061,-0.122,0.061,-0.01,-0.03,0.01
0.008,-0.025,1.006,-32.000,-12.000,-75.000,0.000,-0.183,0.061,-0.01,-0.02,0.01
0.008,-0.026,1.004,-32.000,-12.000,-75.000,-0.061,-0.122,0.000,-0.01,-0.03,0.01
0.009,-0.026,1.005,-32.000,-12.000,-75.000,-0.061,-0.122,0.061,-0.01,-0.03,0.01
0.008,-0.026,1.005,-32.000,-12.000,-75.000,0.000,-0.122,0.061,-0.01,-0.03,0.01
0.009,-0.025,1.004,-34.000,-9.000,-75.000,-0.061,-0.122,0.061,-0.01,-0.02,0.01
0.009,-0.026,1.005,-34.000,-9.000,-75.000,-0.061,-0.122,0.122,-0.01,-0.03,0.01
0.008,-0.025,1.004,-34.000,-9.000,-75.000,0.000,-0.061,0.122,-0.01,-0.02,0.01
0.007,-0.025,1.006,-34.000,-9.000,-75.000,-0.061,-0.122,0.122,-0.01,-0.02,0.01
0.008,-0.026,1.006,-34.000,-9.000,-75.000,0.000,-0.061,0.061,-0.01,-0.03,0.01
0.010,-0.026,1.005,-32.000,-9.000,-68.000,0.000,-0.061,0.000,-0.01,-0.03,0.01
0.009,-0.026,1.006,-32.000,-9.000,-68.000,0.000,-0.183,0.061,-0.01,-0.02,0.01
0.007,-0.026,1.007,-32.000,-9.000,-68.000,0.000,-0.183,0.000,-0.01,-0.03,0.01
0.009,-0.026,1.005,-32.000,-9.000,-68.000,-0.061,-0.183,0.061,-0.01,-0.03,0.01
0.009,-0.026,1.004,-32.000,-9.000,-68.000,0.000,-0.061,0.061,-0.01,-0.03,0.01
0.008,-0.026,1.006,-30.000,-11.000,-77.000,-0.061,-0.061,0.000,-0.01,-0.03,0.01
0.009,-0.026,1.007,-30.000,-11.000,-77.000,0.000,-0.183,0.061,-0.01,-0.02,0.01
0.009,-0.026,1.005,-30.000,-11.000,-77.000,0.000,-0.183,0.061,-0.01,-0.03,0.01
0.009,-0.025,1.005,-30.000,-11.000,-77.000,0.000,-0.122,0.000,-0.01,-0.02,0.01
0.008,-0.025,1.006,-30.000,-11.000,-77.000,0.000,-0.122,0.061,-0.01,-0.02,0.01
0.008,-0.025,1.004,-30.000,-11.000,-77.000,-0.061,-0.122,0.061,-0.01,-0.02,0.01
0.008,-0.025,1.005,-32.000,-10.000,-76.000,0.000,-0.122,0.061,-0.01,-0.03,0.01
0.006,-0.026,1.006,-32.000,-10.000,-76.000,0.061,-0.122,0.061,-0.00,-0.03,0.01
0.007,-0.026,1.006,-32.000,-10.000,-76.000,-0.061,-0.122,0.000,-0.01,-0.03,0.01
0.008,-0.025,1.005,-32.000,-10.000,-76.000,0.000,-0.122,0.000,-0.01,-0.02,0.01
0.008,-0.025,1.005,-32.000,-10.000,-76.000,0.061,-0.122,0.061,-0.01,-0.02,0.01
0.008,-0.024,1.005,-32.000,-12.000,-77.000,-0.061,-0.122,0.061,-0.01,-0.02,0.01
0.008,-0.025,1.004,-32.000,-12.000,-77.000,-0.061,-0.061,0.000,-0.01,-0.03,0.01
0.009,-0.025,1.004,-32.000,-12.000,-77.000,-0.061,-0.061,0.000,-0.01,-0.02,0.01
0.007,-0.026,1.006,-32.000,-12.000,-77.000,0.000,-0.183,0.000,-0.01,-0.03,0.01
0.006,-0.026,1.005,-32.000,-12.000,-77.000,0.000,-0.061,0.000,-0.01,-0.03,0.01
0.009,-0.026,1.005,-32.000,-13.000,-73.000,0.000,-0.122,0.061,-0.01,-0.03,0.01
0.009,-0.026,1.005,-32.000,-13.000,-73.000,-0.061,-0.122,0.000,-0.01,-0.03,0.01
0.008,-0.025,1.005,-32.000,-13.000,-73.000,-0.061,-0.183,0.061,-0.01,-0.02,0.01
0.009,-0.025,1.005,-32.000,-13.000,-73.000,0.000,-0.122,0.061,-0.01,-0.03,0.01
0.009,-0.026,1.006,-32.000,-13.000,-73.000,-0.061,-0.122,0.061,-0.01,-0.03,0.01
0.009,-0.027,1.005,-31.000,-12.000,-77.000,-0.061,-0.122,0.061,-0.01,-0.03,0.01
0.008,-0.026,1.006,-31.000,-12.000,-77.000,0.000,-0.122,0.000,-0.01,-0.03,0.01
0.007,-0.026,1.005,-31.000,-12.000,-77.000,0.000,-0.122,0.000,-0.01,-0.02,0.01
0.010,-0.024,1.005,-31.000,-12.000,-77.000,0.000,-0.122,0.000,-0.01,-0.02,0.01
0.009,-0.025,1.005,-31.000,-12.000,-77.000,0.000,-0.061,0.061,-0.01,-0.03,0.01
0.007,-0.025,1.006,-31.000,-12.000,-77.000,0.000,-0.061,0.000,-0.01,-0.02,0.01
0.008,-0.027,1.005,-34.000,-12.000,-78.000,-0.061,-0.122,0.122,-0.01,-0.03,0.01
0.008,-0.027,1.005,-34.000,-12.000,-78.000,-0.061,-0.183,0.061,-0.01,-0.03,0.01
0.009,-0.027,1.005,-34.000,-12.000,-78.000,-0.061,-0.122,0.000,-0.01,-0.03,0.01
0.008,-0.026,1.005,-34.000,-12.000,-78.000,0.000,-0.122,0.061,-0.01,-0.02,0.01
0.008,-0.025,1.005,-34.000,-12.000,-78.000,-0.061,-0.122,0.061,-0.01,-0.03,0.01
0.009,-0.026,1.006,-31.000,-12.000,-74.000,-0.061,-0.122,0.061,-0.01,-0.02,0.01
0.008,-0.026,1.005,-31.000,-12.000,-74.000,-0.061,-0.122,-0.061,-0.01,-0.03,0.01
0.008,-0.026,1.007,-31.000,-12.000,-74.000,0.000,-0.183,0.000,-0.01,-0.03,0.01
0.009,-0.027,1.004,-31.000,-12.000,-74.000,0.000,-0.122,0.061,-0.01,-0.02,0.01
0.008,-0.025,1.004,-31.000,-12.000,-74.000,0.000,-0.122,0.000,-0.01,-0.02,0.01
0.008,-0.025,1.006,-32.000,-10.000,-76.000,-0.122,-0.122,0.061,-0.01,-0.02,0.01
0.007,-0.026,1.005,-32.000,-10.000,-76.000,-0.061,-0.122,0.061,-0.01,-0.03,0.01
0.009,-0.026,1.005,-32.000,-10.000,-76.000,0.000,-0.061,0.122,-0.01,-0.03,0.01
0.008,-0.026,1.005,-32.000,-10.000,-76.000,0.000,-0.061,0.061,-0.01,-0.03,0.01
0.007,-0.027,1.005,-32.000,-10.000,-76.000,0.000,-0.122,0.061,-0.01,-0.03,0.01
0.008,-0.026,1.005,-32.000,-12.000,-69.000,-0.061,-0.122,0.122,-0.01,-0.03,0.01
0.008,-0.026,1.006,-32.000,-12.000,-69.000,-0.061,-0.122,0.000,-0.01,-0.02,0.01
0.009,-0.024,1.006,-32.000,-12.000,-69.000,0.000,-0.122,0.000,-0.01,-0.02,0.01
0.009,-0.025,1.005,-32.000,-12.000,-69.000,0.000,-0.183,0.061,-0.01,-0.03,0.01
0.008,-0.027,1.005,-32.000,-12.000,-69.000,0.000,-0.122,0.061,-0.01,-0.03,0.01
0.007,-0.026,1.005,-32.000,-10.000,-74.000,-0.061,-0.122,0.000,-0.01,-0.03,0.01
0.008,-0.026,1.005,-32.000,-10.000,-74.000,-0.061,-0.122,0.061,-0.01,-0.03,0.01
0.009,-0.025,1.004,-32.000,-10.000,-74.000,-0.061,-0.061,0.061,-0.01,-0.02,0.01
0.009,-0.026,1.004,-32.000,-10.000,-74.000,-0.061,-0.061,0.000,-0.01,-0.03,0.01
0.008,-0.025,1.005,-32.000,-10.000,-74.000,0.000,-0.122,0.122,-0.01,-0.02,0.01
0.008,-0.026,1.006,-32.000,-10.000,-74.000,-0.061,-0.183,0.122,-0.01,-0.03,0.01
0.008,-0.027,1.005,-32.000,-12.000,-71.000,0.000,-0.122,0.000,-0.01,-0.03,0.01
0.008,-0.026,1.005,-32.000,-12.000,-71.000,0.000,-0.183,0.000,-0.01,-0.03,0.01
0.007,-0.026,1.005,-32.000,-12.000,-71.000,-0.061,-0.122,0.000,-0.01,-0.03,0.01
0.008,-0.027,1.007,-32.000,-12.000,-71.000,0.000,-0.122,0.000,-0.01,-0.03,0.01
0.009,-0.027,1.005,-32.000,-12.000,-71.000,-0.122,-0.122,0.000,-0.01,-0.03,0.01
0.009,-0.025,1.005,-33.000,-11.000,-77.000,-0.061,-0.183,0.061,-0.01,-0.02,0.01
0.008,-0.025,1.005,-33.000,-11.000,-77.000,0.000,-0.122,0.000,-0.01,-0.03,0.01
0.007,-0.026,1.005,-33.000,-11.000,-77.000,0.000,-0.061,0.061,-0.01,-0.03,0.01
0.008,-0.026,1.006,-33.000,-11.000,-77.000,-0.061,-0.122,0.061,-0.01,-0.03,0.01
0.008,-0.026,1.004,-33.000,-11.000,-77.000,-0.061,-0.183,0.061,-0.01,-0.03,0.01
0.008,-0.025,1.004,-31.000,-11.000,-78.000,-0.061,-0.122,0.061,-0.01,-0.02,0.01
0.008,-0.025,1.006,-31.000,-11.000,-78.000,-0.061,-0.122,0.061,-0.01,-0.03,0.01
0.008,-0.026,1.006,-31.000,-11.000,-78.000,-0.061,-0.061,0.000,-0.01,-0.03,0.01
0.006,-0.027,1.005,-31.000,-11.000,-78.000,0.000,-0.122,0.000,-0.01,-0.03,0.01
0.007,-0.026,1.005,-31.000,-11.000,-78.000,-0.061,-0.061,0.000,-0.01,-0.02,0.01
0.009,-0.025,1.004,-33.000,-12.000,-71.000,-0.061,-0.183,0.000,-0.01,-0.03,0.01
0.008,-0.025,1.002,-33.000,-12.000,-71.000,0.061,-0.183,0.000,-0.01,-0.02,0.01
0.006,-0.026,1.007,-33.000,-12.000,-71.000,0.000,-0.122,0.061,-0.01,-0.03,0.01
0.009,-0.027,1.007,-33.000,-12.000,-71.000,0.000,-0.122,0.000,-0.01,-0.03,0.01
0.009,-0.025,1.004,-33.000,-12.000,-71.000,0.000,-0.122,-0.061,-0.01,-0.02,0.01
0.005,-0.022,1.005,-33.000,-12.000,-71.000,-0.061,-0.122,0.000,-0.01,-0.02,0.01
0.007,-0.024,1.005,-30.000,-12.000,-71.000,-0.061,-0.122,0.000,-0.01,-0.02,0.01
0.009,-0.027,1.005,-30.000,-12.000,-71.000,-0.061,-0.061,0.061,-0.01,-0.03,0.01
0.008,-0.028,1.004,-30.000,-12.000,-71.000,-0.061,-0.061,0.061,-0.01,-0.03,0.01
0.008,-0.027,1.005,-30.000,-12.000,-71.000,0.000,-0.122,0.061,-0.01,-0.03,0.01
0.008,-0.027,1.006,-30.000,-12.000,-71.000,-0.061,-0.122,0.061,-0.01,-0.03,0.01
0.007,-0.025,1.007,-32.000,-13.000,-79.000,0.000,-0.122,-0.061,-0.01,-0.03,0.01
0.009,-0.025,1.006,-32.000,-13.000,-79.000,-0.061,-0.122,0.000,-0.01,-0.02,0.01
0.009,-0.025,1.005,-32.000,-13.000,-79.000,-0.122,-0.122,0.061,-0.01,-0.02,0.01
0.007,-0.026,1.004,-32.000,-13.000,-79.000,-0.061,-0.183,0.122,-0.01,-0.03,0.01
0.008,-0.027,1.008,-32.000,-13.000,-79.000,0.000,-0.122,0.061,-0.01,-0.03,0.01
0.010,-0.027,1.005,-31.000,-12.000,-74.000,-0.061,-0.122,-0.061,-0.01,-0.03,0.01
0.007,-0.025,1.003,-31.000,-12.000,-74.000,-0.061,-0.183,0.000,-0.01,-0.03,0.01
0.005,-0.025,1.005,-31.000,-12.000,-74.000,0.000,-0.122,0.061,-0.01,-0.03,0.01
0.007,-0.026,1.006,-31.000,-12.000,-74.000,0.000,-0.122,0.000,-0.01,-0.03,0.01
0.009,-0.026,1.004,-31.000,-12.000,-74.000,-0.061,-0.122,0.000,-0.01,-0.03,0.01
0.008,-0.026,1.003,-31.000,-12.000,-75.000,0.000,-0.061,0.000,-0.01,-0.03,0.01
0.007,-0.026,1.005,-31.000,-12.000,-75.000,0.000,-0.061,0.061,-0.01,-0.02,0.01
0.008,-0.028,1.005,-31.000,-12.000,-75.000,0.000,-0.061,0.061,-0.01,-0.03,0.01
0.011,-0.027,1.004,-31.000,-12.000,-75.000,0.000,-0.122,0.000,-0.01,-0.03,0.01
0.008,-0.025,1.005,-31.000,-12.000,-75.000,-0.061,-0.122,0.000,-0.01,-0.02,0.01
0.007,-0.024,1.005,-31.000,-12.000,-75.000,0.000,-0.183,0.000,-0.01,-0.02,0.01
0.008,-0.026,1.005,-33.000,-11.000,-75.000,-0.061,-0.122,0.061,-0.01,-0.02,0.01
0.009,-0.027,1.003,-33.000,-11.000,-75.000,-0.061,-0.061,0.061,-0.01,-0.03,0.01
0.008,-0.025,1.005,-33.000,-11.000,-75.000,0.000,-0.122,0.122,-0.01,-0.03,0.01
0.008,-0.026,1.005,-33.000,-11.000,-75.000,-0.061,-0.122,0.000,-0.01,-0.03,0.01
0.007,-0.027,1.005,-33.000,-11.000,-75.000,-0.061,-0.122,0.000,-0.01,-0.03,0.01
0.010,-0.027,1.004,-31.000,-13.000,-75.000,-0.061,-0.122,0.000,-0.01,-0.03,0.01
0.008,-0.024,1.005,-31.000,-13.000,-75.000,0.000,-0.122,0.000,-0.01,-0.02,0.01
0.006,-0.025,1.005,-31.000,-13.000,-75.000,-0.061,-0.122,0.122,-0.01,-0.02,0.01
0.009,-0.027,1.005,-31.000,-13.000,-75.000,-0.061,-0.122,0.122,-0.01,-0.03,0.01
0.009,-0.028,1.006,-31.000,-13.000,-75.000,0.000,-0.122,0.000,-0.01,-0.03,0.01
0.008,-0.026,1.005,-29.000,-11.000,-74.000,-0.061,-0.122,0.061,-0.01,-0.03,0.01
0.007,-0.026,1.004,-29.000,-11.000,-74.000,-0.061,-0.122,0.122,-0.01,-0.03,0.01
0.008,-0.025,1.005,-29.000,-11.000,-74.000,-0.122,-0.061,0.000,-0.01,-0.02,0.01
0.009,-0.025,1.005,-29.000,-11.000,-74.000,-0.061,-0.122,0.061,-0.01,-0.03,0.01
0.008,-0.025,1.005,-29.000,-11.000,-74.000,0.000,-0.183,0.061,-0.01,-0.02,0.01
0.006,-0.026,1.005,-32.000,-11.000,-73.000,-0.061,-0.122,0.061,-0.01,-0.03,0.01
0.010,-0.027,1.003,-32.000,-11.000,-73.000,-0.061,-0.122,0.000,-0.01,-0.03,0.01
0.009,-0.026,1.004,-32.000,-11.000,-73.000,-0.061,-0.183,-0.061,-0.01,-0.03,0.01
0.007,-0.025,1.006,-32.000,-11.000,-73.000,-0.061,-0.183,0.000,-0.01,-0.03,0.01
0.009,-0.025,1.006,-32.000,-11.000,-73.000,-0.122,-0.122,0.000,-0.01,-0.02,0.01
0.009,-0.026,1.005,-32.000,-11.000,-73.000,0.000,-0.122,0.061,-0.01,-0.03,0.01
0.009,-0.027,1.004,-33.000,-12.000,-71.000,0.000,-0.183,0.061,-0.01,-0.03,0.01
0.007,-0.028,1.006,-33.000,-12.000,-71.000,0.000,-0.183,0.000,-0.01,-0.03,0.01
0.007,-0.026,1.006,-33.000,-12.000,-71.000,-0.061,-0.122,0.122,-0.01,-0.03,0.01
0.009,-0.027,1.005,-33.000,-12.000,-71.000,-0.122,-0.122,0.061,-0.01,-0.03,0.01
0.008,-0.025,1.005,-33.000,-12.000,-71.000,0.000,-0.122,-0.061,-0.01,-0.03,0.01
0.006,-0.024,1.005,-32.000,-12.000,-71.000,-0.061,-0.122,0.061,-0.01,-0.02,0.01
0.010,-0.026,1.004,-32.000,-12.000,-71.000,-0.061,-0.122,0.061,-0.01,-0.02,0.01
0.009,-0.027,1.004,-32.000,-12.000,-71.000,-0.061,-0.122,0.000,-0.01,-0.03,0.01
0.008,-0.026,1.006,-32.000,-12.000,-71.000,-0.061,-0.061,0.000,-0.01,-0.03,0.01
0.007,-0.026,1.006,-32.000,-12.000,-71.000,-0.061,-0.122,0.000,-0.01,-0.03,0.01
0.008,-0.026,1.005,-31.000,-11.000,-69.000,0.000,-0.122,0.061,-0.01,-0.03,0.01
0.008,-0.026,1.004,-31.000,-11.000,-69.000,0.000,-0.122,0.122,-0.01,-0.03,0.01
0.009,-0.025,1.005,-31.000,-11.000,-69.000,-0.061,-0.183,0.061,-0.01,-0.03,0.01
0.009,-0.027,1.005,-31.000,-11.000,-69.000,-0.061,-0.122,0.061,-0.01,-0.03,0.01
0.009,-0.026,1.004,-31.000,-11.000,-69.000,-0.061,-0.122,0.122,-0.01,-0.03,0.01
0.007,-0.024,1.005,-32.000,-10.000,-75.000,-0.061,-0.061,0.061,-0.01,-0.02,0.01
0.007,-0.025,1.005,-32.000,-10.000,-75.000,-0.061,-0.122,0.061,-0.01,-0.03,0.01
0.008,-0.026,1.006,-32.000,-10.000,-75.000,-0.061,-0.061,0.000,-0.01,-0.03,0.01
0.008,-0.026,1.005,-32.000,-10.000,-75.000,0.000,-0.122,0.061,-0.01,-0.03,0.01
0.007,-0.025,1.005,-32.000,-10.000,-75.000,-0.061,-0.183,0.061,-0.01,-0.02,0.01
0.007,-0.024,1.005,-32.000,-10.000,-75.000,-0.061,-0.122,0.061,-0.01,-0.02,0.01
0.008,-0.025,1.005,-33.000,-11.000,-75.000,0.000,-0.122,0.061,-0.01,-0.02,0.01
0.008,-0.026,1.005,-33.000,-11.000,-75.000,0.000,-0.183,0.061,-0.01,-0.03,0.01
0.006,-0.025,1.002,-33.000,-11.000,-75.000,0.000,-0.183,0.000,-0.01,-0.03,0.01
0.007,-0.025,1.006,-33.000,-11.000,-75.000,0.000,-0.061,0.061,-0.01,-0.02,0.01
0.010,-0.026,1.007,-33.000,-11.000,-75.000,-0.061,-0.061,0.000,-0.01,-0.03,0.01
0.009,-0.024,1.004,-33.000,-12.000,-73.000,-0.122,-0.122,0.061,-0.01,-0.02,0.01
0.008,-0.025,1.005,-33.000,-12.000,-73.000,-0.061,-0.183,0.122,-0.01,-0.02,0.01
0.007,-0.025,1.004,-33.000,-12.000,-73.000,-0.122,-0.122,0.183,-0.01,-0.03,0.01
0.008,-0.027,1.005,-33.000,-12.000,-73.000,0.000,-0.061,0.061,-0.01,-0.03,0.01
0.007,-0.028,1.005,-33.000,-12.000,-73.000,-0.061,-0.122,0.061,-0.01,-0.03,0.01
0.007,-0.026,1.004,-32.000,-12.000,-73.000,-0.122,-0.122,0.061,-0.01,-0.03,0.01
0.008,-0.026,1.006,-32.000,-12.000,-73.000,-0.061,-0.122,0.000,-0.01,-0.03,0.01
0.007,-0.025,1.005,-32.000,-12.000,-73.000,-0.061,-0.183,0.000,-0.01,-0.03,0.01
0.009,-0.026,1.005,-32.000,-12.000,-73.000,0.000,-0.122,0.061,-0.01,-0.03,0.01
0.007,-0.026,1.005,-32.000,-12.000,-73.000,0.000,-0.122,0.122,-0.01,-0.03,0.01
0.006,-0.026,1.005,-32.000,-11.000,-71.000,-0.061,-0.122,0.000,-0.01,-0.03,0.01
0.008,-0.026,1.005,-32.000,-11.000,-71.000,0.000,-0.122,0.000,-0.01,-0.03,0.01
0.008,-0.026,1.005,-32.000,-11.000,-71.000,0.000,-0.122,0.061,-0.01,-0.02,0.01
0.008,-0.025,1.007,-32.000,-11.000,-71.000,0.000,-0.183,0.061,-0.01,-0.03,0.01
0.009,-0.024,1.003,-32.000,-11.000,-71.000,-0.061,-0.122,0.061,-0.01,-0.02,0.01
0.007,-0.023,1.004,-32.000,-11.000,-71.000,0.061,-0.122,0.061,-0.01,-0.02,0.01
0.009,-0.028,1.007,-28.000,-11.000,-72.000,0.061,-0.122,0.061,-0.01,-0.03,0.01
0.007,-0.028,1.005,-28.000,-11.000,-72.000,0.000,-0.183,0.061,-0.01,-0.03,0.01
0.008,-0.025,1.003,-28.000,-11.000,-72.000,-0.061,-0.122,0.000,-0.01,-0.03,0.01
0.008,-0.026,1.005,-28.000,-11.000,-72.000,0.000,-0.183,0.061,-0.01,-0.03,0.01
0.009,-0.026,1.005,-28.000,-11.000,-72.000,0.000,-0.061,0.061,-0.01,-0.02,0.01
0.009,-0.026,1.006,-32.000,-12.000,-75.000,0.000,-0.183,0.000,-0.01,-0.03,0.01
0.008,-0.026,1.004,-32.000,-12.000,-75.000,-0.061,-0.122,0.000,-0.01,-0.03,0.01
0.006,-0.024,1.005,-32.000,-12.000,-75.000,-0.061,-0.122,0.061,-0.01,-0.02,0.01
0.008,-0.027,1.004,-32.000,-12.000,-75.000,-0.061,-0.061,0.061,-0.01,-0.03,0.01
0.008,-0.026,1.005,-32.000,-12.000,-75.000,-0.061,-0.061,0.061,-0.01,-0.03,0.01
0.007,-0.024,1.005,-32.000,-12.000,-72.000,-0.061,-0.122,0.000,-0.01,-0.03,0.01
0.009,-0.025,1.005,-32.000,-12.000,-72.000,0.000,-0.122,0.061,-0.01,-0.02,0.01
0.008,-0.026,1.006,-32.000,-12.000,-72.000,-0.061,-0.122,0.061,-0.01,-0.03,0.01
0.009,-0.026,1.005,-32.000,-12.000,-72.000,-0.061,-0.122,0.061,-0.01,-0.03,0.01
0.006,-0.026,1.004,-32.000,-12.000,-72.000,-0.122,-0.122,0.000,-0.01,-0.03,0.01
0.005,-0.026,1.005,-31.000,-13.000,-76.000,0.000,-0.122,0.061,-0.01,-0.03,0.01
0.010,-0.027,1.006,-31.000,-13.000,-76.000,0.000,-0.122,0.000,-0.01,-0.03,0.01
0.008,-0.025,1.005,-31.000,-13.000,-76.000,-0.061,-0.122,0.000,-0.01,-0.02,0.01
0.006,-0.024,1.004,-31.000,-13.000,-76.000,0.061,-0.122,0.061,-0.01,-0.02,0.01
0.008,-0.027,1.004,-31.000,-13.000,-76.000,0.061,-0.122,0.061,-0.01,-0.03,0.01
0.008,-0.026,1.006,-32.000,-13.000,-71.000,0.000,-0.122,0.061,-0.01,-0.03,0.01
0.008,-0.026,1.004,-32.000,-13.000,-71.000,0.000,-0.122,0.061,-0.01,-0.03,0.01
0.008,-0.025,1.005,-32.000,-13.000,-71.000,0.000,-0.061,0.000,-0.01,-0.02,0.01
0.009,-0.026,1.006,-32.000,-13.000,-71.000,-0.061,-0.122,0.061,-0.01,-0.03,0.01
0.010,-0.026,1.006,-32.000,-13.000,-71.000,0.000,-0.122,0.000,-0.01,-0.03,0.01
0.008,-0.025,1.004,-32.000,-13.000,-71.000,0.000,-0.122,0.061,-0.01,-0.02,0.01
0.007,-0.026,1.006,-32.000,-11.000,-73.000,-0.061,-0.122,0.061,-0.01,-0.03,0.01
0.009,-0.028,1.005,-32.000,-11.000,-73.000,0.000,-0.122,0.061,-0.01,-0.03,0.01
0.007,-0.026,1.005,-32.000,-11.000,-73.000,-0.061,-0.122,0.061,-0.01,-0.03,0.01
0.009,-0.026,1.005,-32.000,-11.000,-73.000,-0.061,-0.122,0.000,-0.01,-0.03,0.01
0.007,-0.025,1.006,-32.000,-11.000,-73.000,-0.061,-0.122,0.000,-0.01,-0.03,0.01
0.008,-0.025,1.005,-33.000,-12.000,-71.000,-0.061,-0.122,0.000,-0.01,-0.03,0.01
0.008,-0.026,1.006,-33.000,-12.000,-71.000,-0.061,-0.061,0.000,-0.01,-0.03,0.01
0.009,-0.025,1.004,-33.000,-12.000,-71.000,-0.061,-0.122,0.061,-0.01,-0.02,0.01
0.008,-0.025,1.003,-33.000,-12.000,-71.000,0.000,-0.122,0.000,-0.01,-0.03,0.01
0.009,-0.026,1.006,-33.000,-12.000,-71.000,-0.061,-0.061,0.061,-0.01,-0.03,0.01
0.008,-0.026,1.006,-35.000,-10.000,-75.000,0.000,-0.061,0.061,-0.01,-0.03,0.01
0.008,-0.025,1.005,-35.000,-10.000,-75.000,0.000,-0.122,0.122,-0.01,-0.02,0.01
0.008,-0.026,1.004,-35.000,-10.000,-75.000,-0.061,-0.122,0.061,-0.01,-0.03,0.01
0.007,-0.026,1.005,-35.000,-10.000,-75.000,-0.061,-0.122,0.000,-0.01,-0.03,0.01
0.008,-0.026,1.005,-35.000,-10.000,-75.000,-0.061,-0.122,0.000,-0.01,-0.03,0.01
0.007,-0.025,1.005,-33.000,-12.000,-73.000,0.000,-0.061,0.061,-0.01,-0.03,0.01
0.009,-0.026,1.005,-33.000,-12.000,-73.000,-0.061,-0.122,0.000,-0.01,-0.03,0.01
0.008,-0.026,1.005,-33.000,-12.000,-73.000,-0.061,-0.122,0.061,-0.01,-0.02,0.01
0.008,-0.024,1.005,-33.000,-12.000,-73.000,-0.061,-0.122,0.061,-0.01,-0.02,0.01
0.009,-0.025,1.004,-33.000,-12.000,-73.000,-0.061,-0.122,0.000,-0.01,-0.02,0.01
0.008,-0.027,1.006,-33.000,-12.000,-73.000,0.000,-0.061,0.000,-0.01,-0.03,0.01
0.006,-0.025,1.003,-32.000,-10.000,-74.000,0.000,-0.183,0.000,-0.01,-0.03,0.01
0.008,-0.026,1.005,-32.000,-10.000,-74.000,0.000,-0.183,0.000,-0.01,-0.03,0.01
0.008,-0.026,1.007,-32.000,-10.000,-74.000,-0.061,-0.183,0.061,-0.01,-0.02,0.01
0.006,-0.025,1.003,-32.000,-10.000,-74.000,0.000,-0.183,0.061,-0.01,-0.02,0.01
0.007,-0.026,1.006,-32.000,-10.000,-74.000,0.000,0.000,0.122,-0.01,-0.03,0.01
0.009,-0.027,1.005,-32.000,-11.000,-73.000,-0.061,-0.061,0.000,-0.01,-0.03,0.01
0.008,-0.026,1.005,-32.000,-11.000,-73.000,0.000,-0.122,0.000,-0.01,-0.03,0.01
0.007,-0.025,1.005,-32.000,-11.000,-73.000,0.000,-0.122,0.000,-0.01,-0.02,0.01
0.006,-0.024,1.005,-32.000,-11.000,-73.000,-0.061,-0.061,0.061,-0.01,-0.02,0.01
0.010,-0.027,1.006,-32.000,-11.000,-73.000,0.000,-0.122,0.061,-0.01,-0.02,0.01
0.007,-0.026,1.007,-30.000,-13.000,-76.000,0.000,-0.122,0.061,-0.01,-0.03,0.01
0.008,-0.025,1.004,-30.000,-13.000,-76.000,-0.061,-0.061,-0.061,-0.01,-0.02,0.01
0.008,-0.025,1.004,-30.000,-13.000,-76.000,0.000,-0.122,0.061,-0.01,-0.03,0.01
0.007,-0.026,1.006,-30.000,-13.000,-76.000,0.061,-0.122,0.061,-0.01,-0.03,0.01
0.008,-0.026,1.005,-30.000,-13.000,-76.000,0.000,-0.122,0.000,-0.01,-0.03,0.01
0.007,-0.024,1.004,-31.000,-12.000,-72.000,0.000,-0.122,-0.061,-0.01,-0.02,0.01
0.007,-0.025,1.005,-31.000,-12.000,-72.000,-0.061,-0.122,0.000,-0.01,-0.03,0.01
0.009,-0.027,1.005,-31.000,-12.000,-72.000,0.000,-0.061,0.000,-0.01,-0.03,0.01
0.008,-0.025,1.005,-31.000,-12.000,-72.000,0.000,-0.183,0.061,-0.01,-0.03,0.01
0.007,-0.025,1.004,-31.000,-12.000,-72.000,0.000,-0.183,0.061,-0.01,-0.02,0.01
0.007,-0.026,1.005,-31.000,-12.000,-72.000,-0.061,-0.122,0.000,-0.01,-0.03,0.01
0.007,-0.026,1.005,-32.000,-11.000,-73.000,0.000,-0.183,0.000,-0.01,-0.03,0.01
0.008,-0.026,1.004,-32.000,-11.000,-73.000,0.000,-0.061,0.000,-0.01,-0.03,0.01
0.006,-0.025,1.005,-32.000,-11.000,-73.000,0.000,-0.061,0.061,-0.01,-0.02,0.01
0.007,-0.025,1.006,-32.000,-11.000,-73.000,0.000,-0.122,0.061,-0.01,-0.02,0.01
0.008,-0.027,1.006,-32.000,-11.000,-73.000,-0.061,-0.122,0.000,-0.01,-0.03,0.01
0.007,-0.025,1.006,-34.000,-12.000,-71.000,-0.061,-0.122,-0.061,-0.01,-0.02,0.01
0.008,-0.024,1.003,-34.000,-12.000,-71.000,0.000,-0.122,0.061,-0.01,-0.02,0.01
0.009,-0.025,1.004,-34.000,-12.000,-71.000,0.000,-0.061,0.061,-0.01,-0.03,0.01
0.008,-0.026,1.006,-34.000,-12.000,-71.000,0.000,-0.122,0.000,-0.01,-0.03,0.01
0.009,-0.026,1.004,-34.000,-12.000,-71.000,-0.061,-0.061,0.000,-0.01,-0.03,0.01
0.007,-0.025,1.005,-32.000,-12.000,-75.000,0.000,-0.061,0.061,-0.01,-0.03,0.01
0.009,-0.027,1.006,-32.000,-12.000,-75.000,-0.122,-0.183,0.061,-0.01,-0.03,0.01
0.008,-0.026,1.004,-32.000,-12.000,-75.000,-0.061,-0.061,0.061,-0.01,-0.03,0.01
0.007,-0.025,1.005,-32.000,-12.000,-75.000,0.000,-0.061,0.000,-0.01,-0.02,0.01
0.008,-0.026,1.006,-32.000,-12.000,-75.000,0.000,-0.122,0.061,-0.01,-0.03,0.01
0.007,-0.027,1.004,-32.000,-12.000,-78.000,0.000,-0.183,0.000,-0.01,-0.03,0.01
0.007,-0.025,1.005,-32.000,-12.000,-78.000,0.000,-0.183,0.000,-0.01,-0.03,0.01
0.008,-0.026,1.004,-32.000,-12.000,-78.000,-0.061,-0.122,0.000,-0.01,-0.03,0.01
0.007,-0.024,1.006,-32.000,-12.000,-78.000,0.000,-0.061,0.000,-0.01,-0.02,0.01
0.007,-0.026,1.005,-32.000,-12.000,-78.000,-0.061,-0.061,0.061,-0.01,-0.03,0.01
0.008,-0.026,1.004,-32.000,-12.000,-78.000,-0.061,-0.122,0.061,-0.01,-0.03,0.01
0.008,-0.025,1.006,-33.000,-13.000,-75.000,0.061,-0.122,0.061,-0.01,-0.02,0.01
0.009,-0.026,1.006,-33.000,-13.000,-75.000,0.000,-0.183,0.061,-0.01,-0.03,0.01
0.009,-0.026,1.005,-33.000,-13.000,-75.000,0.000,-0.122,0.000,-0.01,-0.03,0.01
0.008,-0.026,1.006,-33.000,-13.000,-75.000,0.000,-0.061,-0.061,-0.01,-0.02,0.01
0.008,-0.026,1.005,-33.000,-13.000,-75.000,0.000,-0.122,0.000,-0.01,-0.03,0.01
0.007,-0.026,1.006,-28.000,-10.000,-73.000,0.000,-0.183,0.061,-0.01,-0.02,0.01
0.008,-0.026,1.005,-28.000,-10.000,-73.000,0.000,-0.122,0.061,-0.01,-0.03,0.01
0.009,-0.027,1.005,-28.000,-10.000,-73.000,0.000,-0.122,0.000,-0.01,-0.03,0.01
0.008,-0.025,1.005,-28.000,-10.000,-73.000,-0.061,-0.122,0.061,-0.01,-0.03,0.01
0.010,-0.026,1.005,-28.000,-10.000,-73.000,0.000,-0.122,0.061,-0.01,-0.03,0.01
0.009,-0.025,1.005,-31.000,-12.000,-75.000,0.000,-0.061,0.000,-0.01,-0.02,0.01
0.008,-0.024,1.006,-31.000,-12.000,-75.000,-0.061,-0.061,0.061,-0.01,-0.02,0.01
0.009,-0.026,1.006,-31.000,-12.000,-75.000,0.000,-0.122,0.061,-0.01,-0.02,0.01
0.008,-0.025,1.005,-31.000,-12.000,-75.000,0.000,-0.122,0.000,-0.01,-0.03,0.01
0.009,-0.027,1.005,-31.000,-12.000,-75.000,-0.061,-0.183,0.000,-0.01,-0.03,0.01
0.008,-0.027,1.005,-31.000,-12.000,-75.000,0.000,-0.122,0.061,-0.01,-0.03,0.01
0.007,-0.025,1.005,-31.000,-11.000,-75.000,0.000,-0.122,0.000,-0.01,-0.02,0.01
0.010,-0.026,1.005,-31.000,-11.000,-75.000,0.000,-0.122,0.061,-0.01,-0.02,0.01
0.009,-0.025,1.005,-31.000,-11.000,-75.000,-0.061,-0.122,0.061,-0.01,-0.02,0.01
0.007,-0.025,1.005,-31.000,-11.000,-75.000,0.000,-0.122,0.000,-0.01,-0.02,0.01
0.009,-0.027,1.005,-31.000,-11.000,-75.000,0.000,-0.183,0.061,-0.01,-0.03,0.01
0.008,-0.025,1.004,-31.000,-11.000,-74.000,-0.061,-0.122,0.061,-0.01,-0.02,0.01
0.009,-0.026,1.006,-31.000,-11.000,-74.000,0.000,-0.122,0.000,-0.01,-0.03,0.01
0.008,-0.025,1.005,-31.000,-11.000,-74.000,0.000,-0.122,0.000,-0.01,-0.02,0.01
0.008,-0.025,1.004,-31.000,-11.000,-74.000,-0.061,-0.122,0.000,-0.01,-0.03,0.01
0.008,-0.026,1.005,-31.000,-11.000,-74.000,0.000,-0.122,0.000,-0.01,-0.03,0.01
0.008,-0.025,1.005,-33.000,-11.000,-73.000,0.000,-0.183,0.000,-0.01,-0.02,0.01
0.008,-0.025,1.005,-33.000,-11.000,-73.000,0.000,-0.183,0.061,-0.01,-0.03,0.01
0.008,-0.026,1.005,-33.000,-11.000,-73.000,0.000,-0.122,0.061,-0.01,-0.02,0.01
0.008,-0.026,1.005,-33.000,-11.000,-73.000,0.000,-0.122,0.061,-0.01,-0.03,0.01
0.009,-0.026,1.005,-33.000,-11.000,-73.000,0.000,-0.122,0.061,-0.01,-0.03,0.01
0.008,-0.026,1.005,-33.000,-12.000,-73.000,-0.061,-0.122,0.061,-0.01,-0.03,0.01
0.007,-0.025,1.007,-33.000,-12.000,-73.000,-0.061,-0.122,0.000,-0.01,-0.02,0.01
0.009,-0.026,1.005,-33.000,-12.000,-73.000,-0.061,-0.122,0.000,-0.01,-0.03,0.01
0.008,-0.026,1.005,-33.000,-12.000,-73.000,-0.061,-0.122,0.122,-0.01,-0.03,0.01
0.008,-0.026,1.006,-33.000,-12.000,-73.000,0.000,-0.122,0.061,-0.01,-0.03,0.01
0.008,-0.026,1.006,-33.000,-12.000,-73.000,0.000,-0.061,0.000,-0.01,-0.03,0.01
0.008,-0.025,1.005,-32.000,-11.000,-73.000,-0.061,-0.061,0.000,-0.01,-0.03,0.01
0.008,-0.025,1.005,-32.000,-11.000,-73.000,-0.061,-0.122,-0.061,-0.01,-0.02,0.01
0.008,-0.025,1.006,-32.000,-11.000,-73.000,-0.061,-0.061,0.000,-0.01,-0.02,0.01
0.008,-0.025,1.005,-32.000,-11.000,-73.000,0.000,-0.122,0.122,-0.01,-0.02,0.01
0.009,-0.026,1.005,-32.000,-11.000,-73.000,-0.061,-0.183,0.061,-0.01,-0.03,0.01
0.008,-0.025,1.004,-31.000,-12.000,-75.000,0.000,-0.122,0.061,-0.01,-0.02,0.01
0.008,-0.026,1.005,-31.000,-12.000,-75.000,0.000,-0.061,0.061,-0.01,-0.03,0.01
0.008,-0.026,1.005,-31.000,-12.000,-75.000,0.000,-0.122,0.000,-0.01,-0.03,0.01
0.006,-0.024,1.006,-31.000,-12.000,-75.000,0.000,-0.122,0.000,-0.01,-0.02,0.01
0.008,-0.027,1.004,-31.000,-12.000,-75.000,0.000,-0.122,0.000,-0.01,-0.02,0.01
0.008,-0.026,1.004,-32.000,-12.000,-71.000,0.000,-0.122,0.061,-0.01,-0.03,0.01
0.007,-0.026,1.006,-32.000,-12.000,-71.000,0.000,-0.122,0.061,-0.01,-0.03,0.01
0.008,-0.026,1.006,-32.000,-12.000,-71.000,-0.061,-0.061,0.122,-0.01,-0.03,0.01
0.006,-0.026,1.005,-32.000,-12.000,-71.000,-0.061,-0.122,0.061,-0.01,-0.03,0.01
0.008,-0.027,1.005,-32.000,-12.000,-71.000,0.000,-0.122,-0.061,-0.01,-0.03,0.01
0.008,-0.026,1.004,-33.000,-12.000,-75.000,-0.061,-0.122,0.000,-0.01,-0.03,0.01
0.008,-0.025,1.005,-33.000,-12.000,-75.000,0.000,-0.061,0.061,-0.01,-0.02,0.01
0.008,-0.026,1.006,-33.000,-12.000,-75.000,-0.061,-0.061,0.000,-0.01,-0.03,0.01
0.008,-0.027,1.005,-33.000,-12.000,-75.000,-0.061,-0.122,0.000,-0.01,-0.03,0.01
0.008,-0.024,1.004,-33.000,-12.000,-75.000,-0.061,-0.183,0.000,-0.01,-0.03,0.01
0.009,-0.025,1.004,-33.000,-12.000,-75.000,0.000,-0.122,0.000,-0.01,-0.02,0.01
0.008,-0.025,1.005,-34.000,-11.000,-71.000,-0.061,-0.122,0.061,-0.01,-0.03,0.01
0.009,-0.026,1.006,-34.000,-11.000,-71.000,0.000,-0.061,0.061,-0.01,-0.03,0.01
0.009,-0.027,1.006,-34.000,-11.000,-71.000,0.000,-0.122,0.061,-0.01,-0.03,0.01
0.007,-0.026,1.006,-34.000,-11.000,-71.000,-0.061,-0.122,0.061,-0.01,-0.03,0.01
0.009,-0.026,1.005,-34.000,-11.000,-71.000,0.000,-0.061,0.061,-0.01,-0.03,0.01
0.008,-0.026,1.005,-32.000,-10.000,-78.000,0.061,-0.122,-0.061,-0.01,-0.03,0.01
0.007,-0.025,1.005,-32.000,-10.000,-78.000,0.061,-0.122,0.000,-0.01,-0.02,0.01
0.008,-0.027,1.005,-32.000,-10.000,-78.000,-0.061,-0.122,0.000,-0.01,-0.03,0.01
0.008,-0.026,1.006,-32.000,-10.000,-78.000,0.000,-0.122,0.061,-0.01,-0.02,0.01
0.009,-0.026,1.004,-32.000,-10.000,-78.000,0.000,-0.183,0.000,-0.01,-0.03,0.01
0.008,-0.026,1.007,-33.000,-11.000,-75.000,0.000,-0.122,0.000,-0.01,-0.03,0.01
0.007,-0.025,1.007,-33.000,-11.000,-75.000,0.000,-0.122,0.000,-0.01,-0.02,0.01
0.008,-0.026,1.004,-33.000,-11.000,-75.000,0.000,-0.122,0.000,-0.01,-0.03,0.01
0.008,-0.027,1.005,-33.000,-11.000,-75.000,0.000,-0.122,0.061,-0.01,-0.03,0.01
0.007,-0.026,1.005,-33.000,-11.000,-75.000,0.000,-0.122,0.061,-0.01,-0.03,0.01
0.010,-0.026,1.004,-33.000,-11.000,-75.000,-0.061,-0.122,0.000,-0.01,-0.03,0.01
0.007,-0.025,1.005,-33.000,-13.000,-76.000,-0.061,-0.122,-0.061,-0.01,-0.02,0.01
0.007,-0.026,1.005,-33.000,-13.000,-76.000,0.061,-0.183,0.000,-0.01,-0.03,0.01
0.008,-0.027,1.005,-33.000,-13.000,-76.000,0.000,-0.122,-0.061,-0.01,-0.03,0.01
0.008,-0.026,1.005,-33.000,-13.000,-76.000,-0.061,-0.122,0.000,-0.01,-0.03,0.01
0.008,-0.025,1.005,-33.000,-13.000,-76.000,-0.061,-0.061,0.061,-0.01,-0.02,0.01
0.008,-0.027,1.005,-32.000,-12.000,-73.000,-0.061,-0.122,0.061,-0.01,-0.03,0.01
0.007,-0.026,1.006,-32.000,-12.000,-73.000,0.000,-0.122,0.000,-0.01,-0.03,0.01
0.009,-0.027,1.005,-32.000,-12.000,-73.000,0.061,-0.122,0.000,-0.01,-0.03,0.01
0.007,-0.026,1.005,-32.000,-12.000,-73.000,0.000,-0.122,0.000,-0.01,-0.02,0.01
0.009,-0.026,1.006,-32.000,-12.000,-73.000,0.000,-0.183,0.122,-0.01,-0.03,0.01
0.009,-0.026,1.005,-31.000,-10.000,-77.000,-0.061,-0.122,0.061,-0.01,-0.03,0.01
0.007,-0.025,1.005,-31.000,-10.000,-77.000,-0.061,-0.061,0.061,-0.01,-0.03,0.01
0.007,-0.026,1.006,-31.000,-10.000,-77.000,-0.061,-0.122,0.061,-0.01,-0.03,0.01
0.009,-0.027,1.005,-31.000,-10.000,-77.000,0.000,-0.122,0.061,-0.01,-0.03,0.01
0.008,-0.024,1.005,-31.000,-10.000,-77.000,0.000,-0.122,0.122,-0.01,-0.02,0.01
0.010,-0.026,1.005,-32.000,-12.000,-74.000,0.000,-0.183,0.122,-0.01,-0.03,0.01
0.006,-0.025,1.005,-32.000,-12.000,-74.000,0.061,-0.122,0.122,-0.01,-0.03,0.01
0.008,-0.026,1.004,-32.000,-12.000,-74.000,0.000,-0.122,0.061,-0.01,-0.02,0.01
0.010,-0.027,1.005,-32.000,-12.000,-74.000,0.000,-0.122,0.000,-0.01,-0.03,0.01
0.007,-0.026,1.006,-32.000,-12.000,-74.000,0.000,-0.122,0.000,-0.01,-0.03,0.01
0.008,-0.026,1.006,-32.000,-12.000,-74.000,0.000,-0.122,0.061,-0.01,-0.02,0.01
0.009,-0.025,1.005,-33.000,-12.000,-70.000,-0.061,-0.061,0.061,-0.01,-0.03,0.01
0.007,-0.025,1.005,-33.000,-12.000,-70.000,-0.061,-0.061,0.061,-0.01,-0.02,0.01
0.008,-0.026,1.005,-33.000,-12.000,-70.000,-0.061,-0.061,0.061,-0.01,-0.03,0.01
0.007,-0.025,1.005,-33.000,-12.000,-70.000,0.000,-0.122,0.000,-0.01,-0.03,0.01
0.008,-0.025,1.005,-33.000,-12.000,-70.000,-0.061,-0.122,0.000,-0.01,-0.03,0.01
0.008,-0.026,1.004,-31.000,-12.000,-77.000,0.000,-0.122,0.000,-0.01,-0.03,0.01
0.008,-0.024,1.005,-31.000,-12.000,-77.000,-0.061,-0.122,0.000,-0.01,-0.02,0.01
0.009,-0.025,1.004,-31.000,-12.000,-77.000,0.000,-0.122,0.000,-0.01,-0.02,0.01
0.008,-0.026,1.006,-31.000,-12.000,-77.000,-0.061,-0.183,0.061,-0.01,-0.03,0.01
0.007,-0.025,1.005,-31.000,-12.000,-77.000,0.000,-0.183,0.061,-0.01,-0.03,0.01
0.008,-0.025,1.004,-32.000,-12.000,-78.000,-0.061,-0.122,0.061,-0.01,-0.03,0.01
0.009,-0.026,1.004,-32.000,-12.000,-78.000,-0.061,-0.122,0.061,-0.01,-0.03,0.01
0.008,-0.025,1.005,-32.000,-12.000,-78.000,0.000,-0.061,0.122,-0.01,-0.03,0.01
0.009,-0.026,1.004,-32.000,-12.000,-78.000,-0.061,-0.061,0.000,-0.01,-0.03,0.01
0.007,-0.026,1.005,-32.000,-12.000,-78.000,-0.061,-0.122,0.000,-0.01,-0.03,0.01
0.008,-0.026,1.005,-32.000,-12.000,-78.000,0.000,-0.061,0.000,-0.01,-0.03,0.01
0.008,-0.026,1.005,-33.000,-10.000,-76.000,0.000,-0.122,0.061,-0.01,-0.03,0.01
0.007,-0.025,1.006,-33.000,-10.000,-76.000,-0.061,-0.183,0.183,-0.01,-0.02,0.01
0.008,-0.026,1.006,-33.000,-10.000,-76.000,-0.122,-0.183,0.061,-0.01,-0.03,0.01
0.008,-0.025,1.005,-33.000,-10.000,-76.000,-0.061,-0.122,0.000,-0.01,-0.02,0.01
0.008,-0.025,1.005,-33.000,-10.000,-76.000,0.000,-0.122,0.061,-0.01,-0.03,0.01
0.008,-0.026,1.005,-33.000,-12.000,-74.000,0.000,-0.122,0.061,-0.01,-0.03,0.01
0.007,-0.027,1.005,-33.000,-12.000,-74.000,0.000,-0.122,0.061,-0.01,-0.03,0.01
0.009,-0.026,1.005,-33.000,-12.000,-74.000,-0.061,-0.122,0.000,-0.01,-0.03,0.01
0.008,-0.026,1.004,-33.000,-12.000,-74.000,0.000,-0.183,0.061,-0.01,-0.02,0.01
0.008,-0.026,1.004,-33.000,-12.000,-74.000,-0.061,-0.122,0.061,-0.01,-0.03,0.01
0.008,-0.026,1.005,-31.000,-12.000,-78.000,-0.061,-0.122,0.061,-0.01,-0.02,0.01
0.007,-0.027,1.005,-31.000,-12.000,-78.000,0.000,-0.061,0.000,-0.01,-0.03,0.01
0.007,-0.026,1.005,-31.000,-12.000,-78.000,0.000,-0.061,0.061,-0.01,-0.02,0.01
0.009,-0.026,1.004,-31.000,-12.000,-78.000,-0.061,-0.061,0.000,-0.01,-0.03,0.01
0.007,-0.025,1.005,-31.000,-12.000,-78.000,0.000,-0.061,0.061,-0.01,-0.02,0.01
0.008,-0.026,1.005,-32.000,-12.000,-79.000,0.000,-0.061,0.061,-0.01,-0.03,0.01
0.008,-0.026,1.005,-32.000,-12.000,-79.000,-0.061,-0.122,0.000,-0.01,-0.02,0.01
0.009,-0.025,1.005,-32.000,-12.000,-79.000,-0.061,-0.122,-0.061,-0.01,-0.03,0.01
0.009,-0.026,1.005,-32.000,-12.000,-79.000,0.000,-0.122,0.061,-0.01,-0.03,0.01
0.008,-0.025,1.006,-32.000,-12.000,-79.000,0.000,-0.122,0.000,-0.01,-0.02,0.01
0.007,-0.025,1.004,-32.000,-12.000,-79.000,-0.061,-0.183,0.000,-0.01,-0.03,0.01
0.008,-0.026,1.005,-31.000,-10.000,-71.000,-0.061,-0.061,0.000,-0.01,-0.03,0.01
0.007,-0.025,1.006,-31.000,-10.000,-71.000,0.000,-0.122,0.000,-0.01,-0.02,0.01
0.009,-0.026,1.005,-31.000,-10.000,-71.000,0.000,-0.122,0.061,-0.01,-0.03,0.01
0.007,-0.026,1.005,-31.000,-10.000,-71.000,-0.061,-0.122,0.061,-0.01,-0.03,0.01
0.008,-0.026,1.005,-31.000,-10.000,-71.000,0.000,-0.122,0.061,-0.01,-0.03,0.01
0.009,-0.026,1.005,-33.000,-12.000,-74.000,-0.061,-0.183,0.000,-0.01,-0.03,0.01
0.008,-0.024,1.005,-33.000,-12.000,-74.000,-0.061,-0.183,0.000,-0.01,-0.02,0.01
0.008,-0.025,1.005,-33.000,-12.000,-74.000,-0.061,-0.122,0.061,-0.01,-0.03,0.01
0.008,-0.026,1.005,-33.000,-12.000,-74.000,0.000,-0.122,0.122,-0.01,-0.03,0.01
0.007,-0.025,1.005,-33.000,-12.000,-74.000,0.000,-0.061,0.061,-0.01,-0.02,0.01
0.008,-0.027,1.005,-31.000,-12.000,-79.000,-0.061,-0.122,0.000,-0.01,-0.03,0.01
0.009,-0.026,1.005,-31.000,-12.000,-79.000,-0.061,-0.122,0.000,-0.01,-0.03,0.01
0.008,-0.026,1.005,-31.000,-12.000,-79.000,-0.061,-0.122,0.061,-0.01,-0.03,0.01
0.009,-0.026,1.005,-31.000,-12.000,-79.000,0.000,-0.061,0.000,-0.01,-0.03,0.01
0.006,-0.025,1.004,-31.000,-12.000,-79.000,-0.061,-0.122,0.000,-0.01,-0.03,0.01
0.009,-0.025,1.004,-32.000,-12.000,-73.000,0.000,-0.122,0.000,-0.01,-0.02,0.01
0.009,-0.025,1.006,-32.000,-12.000,-73.000,0.000,-0.122,0.061,-0.01,-0.03,0.01
0.009,-0.025,1.006,-32.000,-12.000,-73.000,-0.061,-0.061,0.061,-0.01,-0.02,0.01
0.009,-0.026,1.005,-32.000,-12.000,-73.000,-0.122,-0.061,0.000,-0.01,-0.03,0.01
0.009,-0.026,1.005,-32.000,-12.000,-73.000,0.000,-0.122,0.061,-0.01,-0.02,0.01
0.009,-0.024,1.005,-32.000,-12.000,-73.000,-0.061,-0.061,0.000,-0.01,-0.02,0.01
0.008,-0.025,1.005,-31.000,-11.000,-72.000,-0.061,0.000,-0.061,-0.01,-0.02,0.01
0.007,-0.023,1.005,-31.000,-11.000,-72.000,0.000,-0.061,0.000,-0.01,-0.02,0.01
0.009,-0.026,1.005,-31.000,-11.000,-72.000,-0.061,-0.183,0.061,-0.01,-0.02,0.01
0.008,-0.025,1.006,-31.000,-11.000,-72.000,-0.122,-0.122,0.000,-0.01,-0.02,0.01
0.007,-0.024,1.005,-31.000,-11.000,-72.000,0.000,-0.122,0.061,-0.01,-0.02,0.01
0.008,-0.026,1.006,-33.000,-12.000,-71.000,0.000,-0.061,0.061,-0.01,-0.03,0.01
0.007,-0.026,1.006,-33.000,-12.000,-71.000,0.000,-0.061,0.061,-0.01,-0.03,0.01
0.007,-0.025,1.005,-33.000,-12.000,-71.000,0.061,-0.122,0.061,-0.01,-0.03,0.01
0.008,-0.027,1.005,-33.000,-12.000,-71.000,0.000,-0.122,0.000,-0.01,-0.03,0.01
0.008,-0.024,1.005,-33.000,-12.000,-71.000,0.000,-0.183,0.061,-0.01,-0.03,0.01
0.009,-0.027,1.004,-33.000,-12.000,-77.000,0.000,-0.183,0.122,-0.01,-0.03,0.01
0.007,-0.026,1.004,-33.000,-12.000,-77.000,-0.061,-0.183,0.061,-0.01,-0.03,0.01
0.008,-0.025,1.005,-33.000,-12.000,-77.000,0.000,-0.122,0.000,-0.01,-0.02,0.01
0.008,-0.026,1.006,-33.000,-12.000,-77.000,0.000,-0.122,0.061,-0.01,-0.03,0.01
0.007,-0.025,1.006,-33.000,-12.000,-77.000,0.000,-0.122,0.122,-0.01,-0.03,0.01
0.008,-0.026,1.005,-31.000,-10.000,-73.000,-0.061,-0.061,0.061,-0.01,-0.03,0.01
0.009,-0.026,1.004,-31.000,-10.000,-73.000,0.000,-0.122,0.000,-0.01,-0.02,0.01
0.007,-0.026,1.005,-31.000,-10.000,-73.000,0.000,-0.122,0.061,-0.01,-0.03,0.01
0.009,-0.028,1.004,-31.000,-10.000,-73.000,0.000,-0.183,0.122,-0.01,-0.03,0.01
0.008,-0.025,1.005,-31.000,-10.000,-73.000,0.061,-0.183,0.122,-0.01,-0.03,0.01
0.008,-0.026,1.005,-31.000,-13.000,-69.000,0.000,-0.183,0.061,-0.01,-0.03,0.01
0.010,-0.026,1.004,-31.000,-13.000,-69.000,0.000,-0.122,0.061,-0.01,-0.03,0.01
0.007,-0.025,1.005,-31.000,-13.000,-69.000,-0.061,-0.122,0.061,-0.01,-0.03,0.01
0.008,-0.026,1.005,-31.000,-13.000,-69.000,0.000,-0.122,0.061,-0.01,-0.03,0.01
0.007,-0.026,1.005,-31.000,-13.000,-69.000,-0.061,-0.061,0.000,-0.01,-0.03,0.01
0.009,-0.025,1.005,-31.000,-13.000,-69.000,-0.061,-0.122,0.000,-0.01,-0.02,0.01
0.009,-0.026,1.004,-31.000,-10.000,-69.000,-0.122,-0.122,0.061,-0.01,-0.03,0.01
0.008,-0.026,1.005,-31.000,-10.000,-69.000,0.000,-0.183,0.061,-0.01,-0.03,0.01
0.007,-0.026,1.005,-31.000,-10.000,-69.000,0.000,-0.183,0.061,-0.01,-0.03,0.01
0.008,-0.026,1.005,-31.000,-10.000,-69.000,-0.061,-0.183,0.061,-0.01,-0.03,0.01
0.008,-0.025,1.005,-31.000,-10.000,-69.000,-0.061,-0.183,0.061,-0.01,-0.02,0.01
0.008,-0.026,1.004,-32.000,-11.000,-73.000,-0.061,-0.183,0.061,-0.01,-0.03,0.01
0.007,-0.025,1.005,-32.000,-11.000,-73.000,0.000,-0.122,0.061,-0.01,-0.03,0.01
0.008,-0.025,1.006,-32.000,-11.000,-73.000,0.000,-0.183,0.061,-0.01,-0.03,0.01
0.010,-0.027,1.005,-32.000,-11.000,-73.000,-0.061,-0.122,0.000,-0.01,-0.03,0.01
0.007,-0.026,1.006,-32.000,-11.000,-73.000,0.000,-0.122,0.061,-0.01,-0.03,0.01
0.008,-0.027,1.006,-33.000,-12.000,-72.000,0.000,-0.183,0.061,-0.01,-0.03,0.01
0.008,-0.025,1.004,-33.000,-12.000,-72.000,0.000,-0.122,0.061,-0.01,-0.03,0.01
0.007,-0.025,1.005,-33.000,-12.000,-72.000,0.000,-0.183,0.000,-0.01,-0.02,0.01
0.010,-0.026,1.004,-33.000,-12.000,-72.000,-0.122,-0.122,0.061,-0.01,-0.03,0.01
0.007,-0.026,1.003,-33.000,-12.000,-72.000,-0.122,-0.122,0.061,-0.01,-0.03,0.01
0.007,-0.026,1.004,-32.000,-9.000,-79.000,0.061,-0.122,0.061,-0.01,-0.03,0.01
0.008,-0.026,1.005,-32.000,-9.000,-79.000,0.000,-0.122,0.000,-0.01,-0.03,0.01
0.007,-0.026,1.007,-32.000,-9.000,-79.000,0.061,-0.122,0.000,-0.01,-0.03,0.01
0.008,-0.026,1.004,-32.000,-9.000,-79.000,-0.061,-0.061,0.000,-0.01,-0.03,0.01
0.007,-0.025,1.006,-32.000,-9.000,-79.000,-0.061,-0.122,0.061,-0.01,-0.02,0.01
0.007,-0.024,1.006,-32.000,-9.000,-79.000,0.061,-0.122,0.122,-0.01,-0.02,0.01
0.008,-0.026,1.004,-32.000,-12.000,-73.000,0.000,-0.122,0.000,-0.01,-0.02,0.01
0.008,-0.024,1.004,-32.000,-12.000,-73.000,0.000,0.000,0.061,-0.01,-0.02,0.01
0.007,-0.024,1.005,-32.000,-12.000,-73.000,-0.061,-0.061,0.061,-0.01,-0.02,0.01
0.008,-0.026,1.005,-32.000,-12.000,-73.000,-0.061,-0.122,0.061,-0.01,-0.03,0.01
0.006,-0.024,1.005,-32.000,-12.000,-73.000,0.000,-0.061,0.000,-0.01,-0.02,0.01
0.006,-0.027,1.006,-33.000,-12.000,-74.000,0.000,-0.061,0.000,-0.01,-0.03,0.01
0.009,-0.026,1.004,-33.000,-12.000,-74.000,0.061,-0.122,0.000,-0.01,-0.03,0.01
0.008,-0.025,1.005,-33.000,-12.000,-74.000,-0.061,-0.183,-0.061,-0.01,-0.02,0.01
0.008,-0.026,1.005,-33.000,-12.000,-74.000,0.000,-0.122,0.000,-0.01,-0.03,0.01
0.007,-0.025,1.004,-33.000,-12.000,-74.000,0.000,-0.122,0.061,-0.01,-0.02,0.01
0.008,-0.025,1.006,-30.000,-10.000,-76.000,0.000,-0.183,0.061,-0.01,-0.03,0.01
0.008,-0.025,1.005,-30.000,-10.000,-76.000,0.000,-0.183,0.061,-0.01,-0.02,0.01
0.007,-0.024,1.006,-30.000,-10.000,-76.000,-0.122,-0.122,0.000,-0.01,-0.02,0.01
0.008,-0.026,1.006,-30.000,-10.000,-76.000,-0.122,-0.122,0.061,-0.01,-0.02,0.01
0.008,-0.025,1.005,-30.000,-10.000,-76.000,0.000,-0.183,0.061,-0.01,-0.03,0.01
0.008,-0.026,1.005,-34.000,-11.000,-73.000,0.000,-0.122,0.061,-0.01,-0.02,0.01
0.008,-0.026,1.005,-34.000,-11.000,-73.000,0.000,-0.061,-0.061,-0.01,-0.03,0.01
0.007,-0.025,1.006,-34.000,-11.000,-73.000,0.000,-0.122,0.000,-0.01,-0.03,0.01
0.008,-0.026,1.004,-34.000,-11.000,-73.000,-0.061,-0.122,0.061,-0.01,-0.03,0.01
0.008,-0.027,1.005,-34.000,-11.000,-73.000,-0.061,-0.122,0.000,-0.01,-0.03,0.01
0.008,-0.025,1.006,-34.000,-11.000,-73.000,-0.061,-0.183,0.000,-0.01,-0.02,0.01
0.008,-0.026,1.005,-32.000,-11.000,-73.000,-0.061,-0.122,0.061,-0.01,-0.03,0.01
0.008,-0.025,1.005,-32.000,-11.000,-73.000,-0.061,-0.122,0.061,-0.01,-0.02,0.01
0.009,-0.025,1.004,-32.000,-11.000,-73.000,0.000,-0.122,0.061,-0.01,-0.02,0.01
0.009,-0.026,1.005,-32.000,-11.000,-73.000,0.000,-0.122,0.061,-0.01,-0.03,0.01
0.007,-0.024,1.005,-32.000,-11.000,-73.000,0.000,-0.122,0.061,-0.01,-0.02,0.01
0.008,-0.026,1.005,-29.000,-11.000,-76.000,-0.061,-0.122,0.061,-0.01,-0.03,0.01
0.008,-0.024,1.006,-29.000,-11.000,-76.000,-0.122,-0.061,0.061,-0.01,-0.02,0.01
0.008,-0.026,1.005,-29.000,-11.000,-76.000,0.000,-0.122,0.000,-0.01,-0.03,0.01
0.008,-0.027,1.005,-29.000,-11.000,-76.000,0.000,-0.183,0.000,-0.01,-0.03,0.01
0.007,-0.026,1.006,-29.000,-11.000,-76.000,0.000,-0.122,0.061,-0.01,-0.03,0.01
0.009,-0.026,1.005,-31.000,-12.000,-73.000,-0.061,-0.061,0.061,-0.01,-0.03,0.01
0.009,-0.026,1.005,-31.000,-12.000,-73.000,0.000,-0.122,0.000,-0.01,-0.03,0.01
0.007,-0.026,1.005,-31.000,-12.000,-73.000,0.000,-0.183,0.000,-0.01,-0.02,0.01
0.008,-0.026,1.004,-31.000,-12.000,-73.000,0.000,-0.183,0.061,-0.01,-0.03,0.01
0.007,-0.025,1.005,-31.000,-12.000,-73.000,-0.061,-0.122,0.061,-0.01,-0.02,0.01
0.007,-0.025,1.005,-34.000,-11.000,-78.000,-0.122,-0.122,0.000,-0.01,-0.03,0.01
0.009,-0.027,1.005,-34.000,-11.000,-78.000,-0.061,-0.061,0.000,-0.01,-0.03,0.01
0.008,-0.026,1.005,-34.000,-11.000,-78.000,-0.061,-0.122,0.000,-0.01,-0.03,0.01
0.008,-0.026,1.005,-34.000,-11.000,-78.000,0.000,-0.122,0.000,-0.01,-0.03,0.01
0.009,-0.026,1.004,-34.000,-11.000,-78.000,0.000,-0.061,0.000,-0.01,-0.03,0.01
0.008,-0.025,1.005,-31.000,-12.000,-77.000,-0.061,-0.122,0.000,-0.01,-0.02,0.01
0.009,-0.026,1.005,-31.000,-12.000,-77.000,-0.061,-0.122,0.061,-0.01,-0.03,0.01
0.007,-0.025,1.005,-31.000,-12.000,-77.000,-0.061,-0.122,0.061,-0.01,-0.03,0.01
0.007,-0.026,1.004,-31.000,-12.000,-77.000,-0.061,-0.061,0.122,-0.01,-0.03,0.01
0.007,-0.026,1.004,-31.000,-12.000,-77.000,-0.061,-0.122,0.122,-0.01,-0.03,0.01
0.007,-0.025,1.005,-31.000,-12.000,-77.000,0.000,-0.122,0.061,-0.01,-0.02,0.01
0.009,-0.026,1.006,-32.000,-12.000,-78.000,0.061,-0.122,0.000,-0.01,-0.03,0.01
0.009,-0.026,1.005,-32.000,-12.000,-78.000,0.000,-0.122,0.061,-0.01,-0.03,0.01
0.008,-0.025,1.006,-32.000,-12.000,-78.000,0.000,-0.122,0.061,-0.01,-0.03,0.01
0.008,-0.026,1.005,-32.000,-12.000,-78.000,0.000,-0.122,0.061,-0.01,-0.03,0.01
0.008,-0.026,1.004,-32.000,-12.000,-78.000,-0.061,-0.122,0.000,-0.01,-0.03,0.01
0.007,-0.025,1.005,-32.000,-11.000,-73.000,0.000,-0.122,0.000,-0.01,-0.02,0.01
0.009,-0.025,1.005,-32.000,-11.000,-73.000,0.000,-0.122,0.000,-0.01,-0.02,0.01
0.007,-0.025,1.005,-32.000,-11.000,-73.000,-0.061,-0.122,0.061,-0.01,-0.02,0.01
0.008,-0.025,1.005,-32.000,-11.000,-73.000,0.000,-0.122,0.061,-0.01,-0.02,0.01
0.008,-0.026,1.005,-32.000,-11.000,-73.000,0.000,-0.122,0.000,-0.01,-0.03,0.01
0.007,-0.026,1.006,-32.000,-12.000,-74.000,-0.061,-0.122,0.000,-0.01,-0.03,0.01
0.009,-0.027,1.006,-32.000,-12.000,-74.000,-0.061,-0.122,0.000,-0.01,-0.03,0.01
0.008,-0.026,1.004,-32.000,-12.000,-74.000,-0.061,-0.061,0.000,-0.01,-0.02,0.01
0.008,-0.026,1.005,-32.000,-12.000,-74.000,-0.061,-0.122,0.061,-0.01,-0.03,0.01
0.009,-0.025,1.006,-32.000,-12.000,-74.000,0.000,-0.122,0.000,-0.01,-0.02,0.01
0.008,-0.025,1.004,-32.000,-12.000,-72.000,-0.061,-0.122,0.000,-0.01,-0.03,0.01
0.009,-0.026,1.005,-32.000,-12.000,-72.000,-0.061,-0.122,0.061,-0.01,-0.03,0.01
0.008,-0.025,1.006,-32.000,-12.000,-72.000,-0.061,-0.183,0.061,-0.01,-0.02,0.01
0.007,-0.026,1.005,-32.000,-12.000,-72.000,0.061,-0.183,0.061,-0.01,-0.03,0.01
0.009,-0.026,1.004,-32.000,-12.000,-72.000,0.000,-0.122,0.061,-0.01,-0.03,0.01
0.008,-0.025,1.006,-32.000,-12.000,-72.000,0.000,-0.122,0.061,-0.01,-0.02,0.01
0.010,-0.026,1.005,-32.000,-11.000,-74.000,-0.061,-0.122,0.061,-0.01,-0.03,0.01
0.008,-0.026,1.005,-32.000,-11.000,-74.000,0.000,-0.061,0.061,-0.01,-0.03,0.01
0.008,-0.026,1.005,-32.000,-11.000,-74.000,0.000,-0.122,0.061,-0.01,-0.02,0.01
0.008,-0.027,1.005,-32.000,-11.000,-74.000,-0.061,-0.122,0.061,-0.01,-0.03,0.01
0.008,-0.027,1.005,-32.000,-11.000,-74.000,-0.061,-0.122,0.061,-0.01,-0.03,0.01
0.008,-0.025,1.004,-33.000,-12.000,-74.000,0.000,-0.061,0.000,-0.01,-0.03,0.01
0.010,-0.026,1.005,-33.000,-12.000,-74.000,0.000,-0.122,-0.061,-0.01,-0.03,0.01
0.008,-0.025,1.006,-33.000,-12.000,-74.000,0.000,-0.183,0.000,-0.01,-0.03,0.01
0.007,-0.026,1.006,-33.000,-12.000,-74.000,0.000,-0.122,0.000,-0.01,-0.03,0.01
0.007,-0.026,1.005,-33.000,-12.000,-74.000,0.000,-0.122,0.061,-0.01,-0.03,0.01
0.007,-0.025,1.006,-28.000,-13.000,-76.000,0.000,-0.183,0.061,-0.01,-0.03,0.01
0.007,-0.026,1.005,-28.000,-13.000,-76.000,-0.061,-0.122,0.000,-0.01,-0.03,0.01
0.009,-0.026,1.005,-28.000,-13.000,-76.000,-0.061,-0.061,0.061,-0.01,-0.02,0.01
0.007,-0.025,1.005,-28.000,-13.000,-76.000,0.061,-0.122,0.122,-0.01,-0.02,0.01
0.009,-0.026,1.004,-28.000,-13.000,-76.000,-0.061,-0.122,0.000,-0.01,-0.03,0.01
0.008,-0.024,1.006,-31.000,-11.000,-73.000,-0.061,-0.061,0.000,-0.01,-0.02,0.01
0.007,-0.027,1.004,-31.000,-11.000,-73.000,-0.061,-0.061,0.000,-0.01,-0.03,0.01
0.008,-0.027,1.005,-31.000,-11.000,-73.000,-0.061,-0.122,0.122,-0.01,-0.03,0.01
0.008,-0.026,1.005,-31.000,-11.000,-73.000,0.000,-0.122,0.061,-0.01,-0.03,0.01
0.008,-0.026,1.004,-31.000,-11.000,-73.000,-0.122,-0.122,0.000,-0.01,-0.03,0.01
0.008,-0.026,1.005,-32.000,-13.000,-72.000,-0.061,-0.122,0.061,-0.01,-0.03,0.01
0.009,-0.025,1.005,-32.000,-13.000,-72.000,-0.061,-0.122,0.000,-0.01,-0.02,0.01
0.009,-0.026,1.005,-32.000,-13.000,-72.000,0.000,-0.122,0.000,-0.01,-0.03,0.01
0.007,-0.026,1.005,-32.000,-13.000,-72.000,0.000,-0.122,0.000,-0.01,-0.03,0.01
0.008,-0.026,1.005,-32.000,-13.000,-72.000,-0.061,-0.183,0.122,-0.01,-0.03,0.01
0.008,-0.025,1.004,-32.000,-13.000,-72.000,-0.061,-0.122,0.061,-0.01,-0.03,0.01
0.007,-0.025,1.004,-33.000,-11.000,-76.000,-0.122,-0.122,0.000,-0.01,-0.02,0.01
0.008,-0.025,1.005,-33.000,-11.000,-76.000,0.000,-0.183,0.061,-0.01,-0.03,0.01
0.008,-0.025,1.004,-33.000,-11.000,-76.000,0.000,-0.183,0.061,-0.01,-0.02,0.01
0.009,-0.026,1.004,-33.000,-11.000,-76.000,-0.061,-0.122,0.000,-0.01,-0.03,0.01
0.008,-0.026,1.005,-33.000,-11.000,-76.000,0.000,-0.183,0.061,-0.01,-0.03,0.01
0.007,-0.025,1.005,-32.000,-10.000,-77.000,0.000,-0.122,0.061,-0.01,-0.03,0.01
0.008,-0.027,1.004,-32.000,-10.000,-77.000,-0.061,-0.122,0.000,-0.01,-0.03,0.01
0.007,-0.026,1.004,-32.000,-10.000,-77.000,-0.122,-0.122,0.000,-0.01,-0.03,0.01
0.007,-0.025,1.005,-32.000,-10.000,-77.000,0.000,-0.122,0.061,-0.01,-0.02,0.01
0.009,-0.027,1.005,-32.000,-10.000,-77.000,-0.061,-0.061,0.061,-0.01,-0.03,0.01
0.007,-0.026,1.004,-33.000,-11.000,-75.000,0.000,-0.061,0.061,-0.01,-0.03,0.01
0.009,-0.025,1.003,-33.000,-11.000,-75.000,0.000,-0.122,0.061,-0.01,-0.03,0.01
0.008,-0.025,1.005,-33.000,-11.000,-75.000,-0.061,-0.122,0.000,-0.01,-0.02,0.01
0.008,-0.026,1.005,-33.000,-11.000,-75.000,0.000,-0.122,-0.061,-0.01,-0.03,0.01
0.009,-0.027,1.005,-33.000,-11.000,-75.000,0.000,-0.122,0.000,-0.01,-0.03,0.01
0.008,-0.026,1.005,-32.000,-13.000,-72.000,-0.061,-0.183,0.061,-0.01,-0.03,0.01
0.007,-0.025,1.005,-32.000,-13.000,-72.000,-0.061,-0.122,0.000,-0.01,-0.02,0.01
0.008,-0.026,1.004,-32.000,-13.000,-72.000,-0.061,-0.061,0.061,-0.01,-0.03,0.01
0.007,-0.026,1.004,-32.000,-13.000,-72.000,0.000,-0.122,0.061,-0.01,-0.03,0.01
0.007,-0.026,1.005,-32.000,-13.000,-72.000,0.000,-0.122,0.061,-0.01,-0.03,0.01
0.009,-0.026,1.005,-32.000,-13.000,-72.000,0.061,-0.122,0.061,-0.01,-0.03,0.01
0.007,-0.025,1.005,-34.000,-12.000,-74.000,0.061,-0.183,0.122,-0.01,-0.03,0.01
0.009,-0.028,1.005,-34.000,-12.000,-74.000,0.000,-0.122,0.061,-0.01,-0.03,0.01
0.008,-0.025,1.005,-34.000,-12.000,-74.000,0.000,-0.061,0.000,-0.01,-0.03,0.01
0.008,-0.025,1.005,-34.000,-12.000,-74.000,0.000,-0.061,0.000,-0.01,-0.02,0.01
0.008,-0.025,1.004,-34.000,-12.000,-74.000,-0.061,-0.122,0.000,-0.01,-0.03,0.01
0.008,-0.024,1.005,-32.000,-10.000,-72.000,-0.061,-0.183,0.061,-0.01,-0.02,0.01
0.008,-0.026,1.005,-32.000,-10.000,-72.000,-0.061,-0.122,0.061,-0.01,-0.03,0.01
0.008,-0.027,1.006,-32.000,-10.000,-72.000,-0.061,-0.122,0.061,-0.01,-0.03,0.01
0.009,-0.026,1.005,-32.000,-10.000,-72.000,0.000,-0.122,0.061,-0.01,-0.03,0.01
0.009,-0.026,1.004,-32.000,-10.000,-72.000,-0.061,-0.122,-0.061,-0.01,-0.03,0.01
0.007,-0.025,1.006,-32.000,-13.000,-76.000,0.000,-0.122,0.000,-0.01,-0.03,0.01
0.008,-0.025,1.004,-32.000,-13.000,-76.000,0.000,-0.183,0.061,-0.01,-0.02,0.01
0.010,-0.026,1.005,-32.000,-13.000,-76.000,0.000,-0.122,0.000,-0.01,-0.03,0.01
0.008,-0.025,1.004,-32.000,-13.000,-76.000,-0.061,-0.061,0.000,-0.01,-0.02,0.01
0.008,-0.025,1.004,-32.000,-13.000,-76.000,0.000,-0.122,0.061,-0.01,-0.03,0.01
0.008,-0.026,1.005,-33.000,-11.000,-78.000,-0.061,-0.183,0.122,-0.01,-0.02,0.01
0.007,-0.025,1.005,-33.000,-11.000,-78.000,0.061,-0.122,0.061,-0.01,-0.02,0.01
0.008,-0.027,1.004,-33.000,-11.000,-78.000,0.000,-0.122,0.000,-0.01,-0.02,0.01
0.007,-0.026,1.005,-33.000,-11.000,-78.000,0.000,-0.122,0.000,-0.01,-0.03,0.01
0.008,-0.025,1.004,-33.000,-11.000,-78.000,-0.061,-0.122,0.061,-0.01,-0.03,0.01
0.008,-0.027,1.004,-33.000,-11.000,-78.000,-0.061,-0.061,0.061,-0.01,-0.03,0.01
0.007,-0.024,1.005,-35.000,-11.000,-78.000,-0.061,-0.122,-0.061,-0.01,-0.03,0.01
0.010,-0.026,1.005,-35.000,-11.000,-78.000,-0.061,-0.122,0.000,-0.01,-0.03,0.01
0.009,-0.026,1.006,-35.000,-11.000,-78.000,-0.061,-0.122,0.061,-0.01,-0.03,0.01
0.007,-0.026,1.005,-35.000,-11.000,-78.000,-0.061,-0.061,0.061,-0.01,-0.03,0.01
0.007,-0.025,1.004,-35.000,-11.000,-78.000,0.000,-0.122,0.061,-0.01,-0.03,0.01
0.006,-0.026,1.004,-32.000,-12.000,-73.000,0.000,-0.122,0.061,-0.01,-0.03,0.01
0.008,-0.026,1.006,-32.000,-12.000,-73.000,-0.061,-0.122,0.000,-0.01,-0.03,0.01
0.009,-0.026,1.005,-32.000,-12.000,-73.000,-0.061,-0.061,0.000,-0.01,-0.03,0.01
0.006,-0.025,1.006,-32.000,-12.000,-73.000,-0.061,-0.122,0.061,-0.01,-0.03,0.01
0.008,-0.026,1.005,-32.000,-12.000,-73.000,-0.061,-0.122,0.061,-0.01,-0.02,0.01
0.007,-0.026,1.005,-29.000,-12.000,-74.000,-0.061,-0.061,0.000,-0.01,-0.03,0.01
0.008,-0.025,1.006,-29.000,-12.000,-74.000,0.000,-0.122,0.061,-0.01,-0.02,0.01
0.008,-0.026,1.004,-29.000,-12.000,-74.000,0.000,-0.061,0.061,-0.01,-0.03,0.01
0.008,-0.025,1.003,-29.000,-12.000,-74.000,-0.061,-0.061,0.061,-0.01,-0.02,0.01
0.009,-0.026,1.005,-29.000,-12.000,-74.000,0.000,-0.122,0.122,-0.01,-0.03,0.01
0.010,-0.025,1.005,-32.000,-9.000,-74.000,0.000,-0.122,0.000,-0.01,-0.03,0.01
0.006,-0.024,1.004,-32.000,-9.000,-74.000,-0.061,-0.061,0.000,-0.01,-0.02,0.01
0.008,-0.026,1.005,-32.000,-9.000,-74.000,0.000,-0.122,0.000,-0.01,-0.03,0.01
0.008,-0.025,1.006,-32.000,-9.000,-74.000,-0.061,-0.061,0.000,-0.01,-0.02,0.01
0.008,-0.026,1.006,-32.000,-9.000,-74.000,0.000,-0.183,0.122,-0.01,-0.03,0.01
0.007,-0.026,1.005,-32.000,-9.000,-74.000,0.000,-0.122,0.122,-0.01,-0.03,0.01
0.007,-0.025,1.005,-31.000,-13.000,-76.000,0.000,-0.122,0.000,-0.01,-0.02,0.01
0.008,-0.026,1.006,-31.000,-13.000,-76.000,-0.061,-0.061,0.000,-0.01,-0.03,0.01
0.009,-0.026,1.006,-31.000,-13.000,-76.000,0.000,-0.122,0.061,-0.01,-0.02,0.01
0.008,-0.026,1.006,-31.000,-13.000,-76.000,0.000,-0.122,0.000,-0.01,-0.03,0.01
0.009,-0.026,1.006,-31.000,-13.000,-76.000,0.000,-0.183,0.061,-0.01,-0.03,0.01
0.008,-0.025,1.004,-34.000,-11.000,-71.000,0.000,-0.183,0.000,-0.01,-0.02,0.01
0.007,-0.025,1.005,-34.000,-11.000,-71.000,0.000,-0.183,0.000,-0.01,-0.03,0.01
0.008,-0.026,1.005,-34.000,-11.000,-71.000,-0.122,-0.061,0.061,-0.01,-0.03,0.01
0.007,-0.024,1.005,-34.000,-11.000,-71.000,-0.061,-0.122,0.061,-0.01,-0.02,0.01
0.009,-0.026,1.005,-34.000,-11.000,-71.000,0.000,-0.122,0.000,-0.01,-0.03,0.01
0.008,-0.025,1.005,-33.000,-12.000,-70.000,-0.061,-0.122,0.061,-0.01,-0.02,0.01
0.008,-0.025,1.005,-33.000,-12.000,-70.000,-0.061,-0.122,0.061,-0.01,-0.03,0.01
0.009,-0.026,1.005,-33.000,-12.000,-70.000,-0.061,-0.061,0.000,-0.01,-0.02,0.01
0.008,-0.026,1.005,-33.000,-12.000,-70.000,-0.061,-0.122,0.000,-0.01,-0.03,0.01
0.009,-0.026,1.005,-33.000,-12.000,-70.000,-0.061,-0.122,0.000,-0.01,-0.03,0.01
0.008,-0.026,1.004,-31.000,-11.000,-75.000,0.000,-0.122,0.000,-0.01,-0.03,0.01
0.009,-0.025,1.006,-31.000,-11.000,-75.000,0.000,-0.061,0.061,-0.01,-0.03,0.01
0.010,-0.025,1.005,-31.000,-11.000,-75.000,0.061,-0.061,0.061,-0.01,-0.02,0.01
0.008,-0.024,1.005,-31.000,-11.000,-75.000,0.061,-0.061,0.000,-0.01,-0.03,0.01
0.008,-0.026,1.006,-31.000,-11.000,-75.000,0.000,-0.122,0.000,-0.01,-0.03,0.01
0.008,-0.026,1.005,-33.000,-12.000,-76.000,0.000,-0.061,0.061,-0.01,-0.03,0.01
0.007,-0.026,1.004,-33.000,-12.000,-76.000,0.061,-0.122,0.061,-0.01,-0.03,0.01
0.008,-0.027,1.004,-33.000,-12.000,-76.000,0.000,-0.183,0.061,-0.01,-0.03,0.01
0.010,-0.027,1.005,-33.000,-12.000,-76.000,-0.061,-0.183,0.061,-0.01,-0.03,0.01
0.008,-0.025,1.005,-33.000,-12.000,-76.000,0.000,-0.122,0.061,-0.01,-0.03,0.01
0.009,-0.025,1.005,-33.000,-12.000,-76.000,0.000,-0.122,0.000,-0.01,-0.02,0.01
0.009,-0.025,1.006,-33.000,-11.000,-76.000,-0.061,-0.122,0.000,-0.01,-0.03,0.01
0.008,-0.027,1.005,-33.000,-11.000,-76.000,-0.061,-0.122,0.000,-0.01,-0.03,0.01
0.008,-0.026,1.004,-33.000,-11.000,-76.000,-0.061,-0.122,0.000,-0.01,-0.03,0.01
0.008,-0.025,1.003,-33.000,-11.000,-76.000,-0.061,-0.122,0.000,-0.01,-0.02,0.01
0.009,-0.026,1.004,-33.000,-11.000,-76.000,-0.061,-0.122,0.000,-0.01,-0.03,0.01
0.009,-0.026,1.005,-33.000,-10.000,-72.000,0.000,-0.183,0.000,-0.01,-0.03,0.01
0.008,-0.025,1.004,-33.000,-10.000,-72.000,-0.061,-0.122,0.000,-0.01,-0.03,0.01
0.009,-0.026,1.005,-33.000,-10.000,-72.000,0.000,-0.122,0.122,-0.01,-0.03,0.01
0.008,-0.025,1.005,-33.000,-10.000,-72.000,0.061,-0.122,0.061,-0.01,-0.03,0.01
0.009,-0.025,1.004,-33.000,-10.000,-72.000,0.000,-0.122,0.000,-0.01,-0.03,0.01
0.009,-0.026,1.005,-31.000,-12.000,-74.000,-0.061,-0.122,0.000,-0.01,-0.03,0.01
0.007,-0.026,1.006,-31.000,-12.000,-74.000,-0.061,-0.122,0.000,-0.01,-0.03,0.01
0.010,-0.026,1.006,-31.000,-12.000,-74.000,-0.061,-0.122,0.061,-0.01,-0.03,0.01
0.008,-0.026,1.006,-31.000,-12.000,-74.000,-0.061,-0.061,0.000,-0.01,-0.03,0.01
0.008,-0.025,1.005,-31.000,-12.000,-74.000,-0.061,-0.122,0.000,-0.01,-0.02,0.01
0.009,-0.026,1.004,-29.000,-11.000,-74.000,0.000,-0.122,0.061,-0.01,-0.03,0.01
0.007,-0.025,1.005,-29.000,-11.000,-74.000,-0.061,-0.122,0.000,-0.01,-0.03,0.01
0.009,-0.026,1.005,-29.000,-11.000,-74.000,-0.061,-0.183,0.061,-0.01,-0.03,0.01
0.008,-0.026,1.004,-29.000,-11.000,-74.000,0.000,-0.122,0.061,-0.01,-0.03,0.01
0.008,-0.025,1.004,-29.000,-11.000,-74.000,0.000,-0.183,0.000,-0.01,-0.02,0.01
0.009,-0.026,1.005,-29.000,-11.000,-74.000,-0.061,-0.122,0.061,-0.01,-0.03,0.01
0.007,-0.025,1.005,-33.000,-11.000,-74.000,0.000,-0.122,0.061,-0.01,-0.03,0.01
0.010,-0.026,1.005,-33.000,-11.000,-74.000,0.000,-0.122,0.122,-0.01,-0.03,0.01
0.009,-0.025,1.005,-33.000,-11.000,-74.000,0.000,-0.122,0.061,-0.01,-0.02,0.01
0.009,-0.025,1.005,-33.000,-11.000,-74.000,0.000,-0.122,0.000,-0.01,-0.03,0.01
0.008,-0.026,1.005,-33.000,-11.000,-74.000,0.000,-0.122,0.000,-0.01,-0.03,0.01
0.009,-0.027,1.005,-32.000,-12.000,-77.000,0.000,-0.122,0.061,-0.01,-0.03,0.01
0.008,-0.025,1.005,-32.000,-12.000,-77.000,0.000,-0.122,0.061,-0.01,-0.02,0.01
0.009,-0.026,1.004,-32.000,-12.000,-77.000,0.000,-0.122,0.061,-0.01,-0.03,0.01
0.008,-0.026,1.005,-32.000,-12.000,-77.000,0.000,-0.122,0.061,-0.01,-0.03,0.01
0.008,-0.026,1.005,-32.000,-12.000,-77.000,0.000,-0.122,0.061,-0.01,-0.03,0.01
0.009,-0.027,1.004,-29.000,-12.000,-77.000,0.000,-0.061,0.000,-0.01,-0.03,0.01
0.007,-0.026,1.004,-29.000,-12.000,-77.000,-0.061,-0.122,0.061,-0.01,-0.03,0.01
0.009,-0.026,1.005,-29.000,-12.000,-77.000,-0.122,-0.122,0.061,-0.01,-0.03,0.01
0.009,-0.026,1.005,-29.000,-12.000,-77.000,-0.122,-0.061,0.061,-0.01,-0.02,0.01
0.008,-0.024,1.005,-29.000,-12.000,-77.000,0.000,-0.122,0.000,-0.01,-0.02,0.01
0.008,-0.025,1.004,-31.000,-11.000,-73.000,0.000,-0.122,0.061,-0.01,-0.02,0.01
0.007,-0.025,1.006,-31.000,-11.000,-73.000,0.000,-0.061,0.061,-0.01,-0.02,0.01
0.008,-0.025,1.005,-31.000,-11.000,-73.000,-0.061,-0.122,0.061,-0.01,-0.02,0.01
0.008,-0.025,1.005,-31.000,-11.000,-73.000,-0.061,-0.122,0.061,-0.01,-0.02,0.01
0.007,-0.025,1.005,-31.000,-11.000,-73.000,0.000,-0.183,0.061,-0.01,-0.02,0.01
0.008,-0.026,1.005,-31.000,-11.000,-73.000,0.000,-0.122,0.061,-0.01,-0.03,0.01
0.008,-0.025,1.006,-32.000,-11.000,-75.000,0.000,-0.183,0.122,-0.01,-0.02,0.01
0.009,-0.025,1.005,-32.000,-11.000,-75.000,-0.061,-0.061,0.061,-0.01,-0.03,0.01
0.010,-0.026,1.004,-32.000,-11.000,-75.000,-0.061,-0.122,0.000,-0.01,-0.03,0.02
0.007,-0.025,1.004,-32.000,-11.000,-75.000,-0.061,-0.122,-0.061,-0.01,-0.03,0.01
0.007,-0.026,1.005,-32.000,-11.000,-75.000,-0.061,-0.061,0.061,-0.01,-0.03,0.01
0.007,-0.026,1.005,-33.000,-10.000,-72.000,0.000,-0.122,0.061,-0.01,-0.02,0.01
0.007,-0.025,1.005,-33.000,-10.000,-72.000,-0.061,-0.122,0.061,-0.01,-0.03,0.02
0.008,-0.026,1.003,-33.000,-10.000,-72.000,0.000,-0.122,0.061,-0.01,-0.03,0.02
0.006,-0.026,1.005,-33.000,-10.000,-72.000,-0.061,-0.183,0.061,-0.01,-0.03,0.02
0.008,-0.026,1.005,-33.000,-10.000,-72.000,0.000,-0.122,0.061,-0.01,-0.03,0.02
0.007,-0.026,1.004,-35.000,-11.000,-75.000,-0.061,-0.122,0.122,-0.01,-0.03,0.02
0.008,-0.025,1.005,-35.000,-11.000,-75.000,-0.061,-0.122,0.061,-0.01,-0.02,0.02
0.009,-0.025,1.005,-35.000,-11.000,-75.000,-0.061,-0.122,0.000,-0.01,-0.03,0.02
0.009,-0.026,1.006,-35.000,-11.000,-75.000,0.000,-0.122,0.000,-0.01,-0.03,0.02
0.007,-0.025,1.006,-35.000,-11.000,-75.000,-0.061,-0.122,0.061,-0.01,-0.03,0.02
0.009,-0.028,1.005,-31.000,-14.000,-74.000,-0.061,-0.122,0.061,-0.01,-0.03,0.02
0.008,-0.025,1.005,-31.000,-14.000,-74.000,0.000,-0.122,0.000,-0.01,-0.03,0.02
0.008,-0.024,1.004,-31.000,-14.000,-74.000,0.061,-0.122,-0.061,-0.01,-0.02,0.02
0.008,-0.026,1.006,-31.000,-14.000,-74.000,0.000,-0.061,0.000,-0.01,-0.03,0.02
0.006,-0.025,1.006,-31.000,-14.000,-74.000,-0.061,-0.122,0.000,-0.01,-0.02,0.02
0.008,-0.026,1.004,-31.000,-14.000,-75.000,-0.061,-0.122,0.061,-0.01,-0.03,0.02
0.007,-0.024,1.004,-31.000,-14.000,-75.000,-0.061,-0.122,0.000,-0.01,-0.02,0.02
0.009,-0.026,1.005,-31.000,-14.000,-75.000,0.000,-0.122,0.122,-0.01,-0.03,0.02
0.010,-0.026,1.005,-31.000,-14.000,-75.000,-0.061,-0.061,0.122,-0.01,-0.03,0.02
0.007,-0.026,1.006,-31.000,-14.000,-75.000,0.000,-0.122,0.000,-0.01,-0.03,0.02
0.008,-0.025,1.005,-31.000,-14.000,-75.000,0.000,-0.183,0.061,-0.01,-0.02,0.02
0.008,-0.027,1.005,-31.000,-12.000,-73.000,0.000,-0.183,0.000,-0.01,-0.03,0.02
0.007,-0.025,1.005,-31.000,-12.000,-73.000,-0.061,-0.122,0.061,-0.01,-0.02,0.02
0.008,-0.026,1.004,-31.000,-12.000,-73.000,0.000,-0.122,0.061,-0.01,-0.03,0.02
0.007,-0.026,1.004,-31.000,-12.000,-73.000,0.000,-0.183,0.061,-0.01,-0.03,0.02
0.007,-0.026,1.005,-31.000,-12.000,-73.000,0.000,-0.122,0.000,-0.01,-0.03,0.02
0.009,-0.027,1.005,-33.000,-10.000,-74.000,0.000,-0.122,-0.061,-0.01,-0.03,0.02
0.007,-0.024,1.006,-33.000,-10.000,-74.000,-0.061,-0.122,0.061,-0.01,-0.03,0.02
0.008,-0.024,1.006,-33.000,-10.000,-74.000,-0.122,-0.122,0.061,-0.01,-0.02,0.02
0.008,-0.026,1.005,-33.000,-10.000,-74.000,0.000,-0.122,0.061,-0.01,-0.03,0.02
0.007,-0.025,1.005,-33.000,-10.000,-74.000,0.000,-0.183,0.061,-0.01,-0.03,0.02
0.009,-0.026,1.005,-33.000,-12.000,-75.000,-0.061,-0.183,0.000,-0.01,-0.03,0.02
0.007,-0.026,1.006,-33.000,-12.000,-75.000,0.000,-0.122,0.061,-0.01,-0.03,0.02
0.007,-0.025,1.005,-33.000,-12.000,-75.000,0.000,-0.122,0.122,-0.01,-0.02,0.02
0.010,-0.025,1.005,-33.000,-12.000,-75.000,0.000,-0.122,0.122,-0.01,-0.03,0.02
0.007,-0.023,1.006,-33.000,-12.000,-75.000,-0.061,-0.122,0.061,-0.01,-0.02,0.02
0.009,-0.026,1.005,-31.000,-11.000,-76.000,-0.061,-0.122,0.061,-0.01,-0.03,0.02
0.010,-0.026,1.005,-31.000,-11.000,-76.000,-0.061,-0.122,0.061,-0.01,-0.03,0.02
0.008,-0.025,1.005,-31.000,-11.000,-76.000,-0.061,-0.122,0.061,-0.01,-0.03,0.02
0.009,-0.026,1.006,-31.000,-11.000,-76.000,0.000,-0.122,0.000,-0.01,-0.03,0.02
0.007,-0.025,1.005,-31.000,-11.000,-76.000,0.000,-0.122,0.061,-0.01,-0.03,0.02
0.008,-0.026,1.004,-31.000,-11.000,-76.000,0.000,-0.183,0.061,-0.01,-0.02,0.02
0.009,-0.027,1.004,-32.000,-13.000,-72.000,0.000,-0.122,0.061,-0.01,-0.03,0.02
0.007,-0.026,1.006,-32.000,-13.000,-72.000,0.000,-0.122,0.000,-0.01,-0.03,0.02
0.007,-0.027,1.005,-32.000,-13.000,-72.000,0.000,-0.122,0.000,-0.01,-0.03,0.02
0.008,-0.027,1.003,-32.000,-13.000,-72.000,0.000,-0.183,0.061,-0.01,-0.03,0.02
0.009,-0.025,1.005,-32.000,-13.000,-72.000,-0.061,-0.122,0.000,-0.01,-0.03,0.02
0.009,-0.026,1.004,-32.000,-10.000,-79.000,0.000,-0.061,0.000,-0.01,-0.03,0.02
0.008,-0.026,1.005,-32.000,-10.000,-79.000,0.061,-0.061,-0.061,-0.01,-0.03,0.02
0.008,-0.026,1.005,-32.000,-10.000,-79.000,0.000,-0.061,-0.061,-0.01,-0.02,0.02
0.009,-0.026,1.005,-32.000,-10.000,-79.000,0.061,-0.183,0.061,-0.01,-0.03,0.02
0.008,-0.025,1.006,-32.000,-10.000,-79.000,0.061,-0.183,0.061,-0.01,-0.02,0.02
0.009,-0.026,1.004,-30.000,-13.000,-73.000,0.000,-0.122,0.061,-0.01,-0.03,0.02
0.008,-0.025,1.005,-30.000,-13.000,-73.000,0.000,-0.183,0.061,-0.01,-0.03,0.02
0.008,-0.024,1.005,-30.000,-13.000,-73.000,-0.061,-0.183,0.061,-0.01,-0.02,0.02
0.009,-0.025,1.004,-30.000,-13.000,-73.000,-0.061,-0.122,-0.061,-0.01,-0.03,0.02
0.009,-0.025,1.005,-30.000,-13.000,-73.000,-0.061,-0.122,0.000,-0.01,-0.02,0.02
0.008,-0.026,1.005,-31.000,-9.000,-73.000,-0.061,-0.122,0.061,-0.01,-0.03,0.02
0.008,-0.026,1.005,-31.000,-9.000,-73.000,-0.061,-0.122,0.122,-0.01,-0.03,0.02
0.007,-0.023,1.006,-31.000,-9.000,-73.000,0.000,-0.122,0.061,-0.01,-0.03,0.02
0.008,-0.026,1.003,-31.000,-9.000,-73.000,0.000,-0.122,0.122,-0.01,-0.03,0.02
0.008,-0.026,1.006,-31.000,-9.000,-73.000,-0.061,-0.183,0.061,-0.01,-0.02,0.02
0.008,-0.025,1.005,-31.000,-9.000,-73.000,0.061,-0.122,0.000,-0.01,-0.03,0.02
0.009,-0.026,1.004,-33.000,-12.000,-78.000,0.000,-0.183,0.061,-0.01,-0.03,0.02
0.007,-0.026,1.005,-33.000,-12.000,-78.000,-0.061,-0.122,0.061,-0.01,-0.03,0.02
0.008,-0.027,1.003,-33.000,-12.000,-78.000,0.000,-0.122,0.061,-0.01,-0.03,0.02
0.008,-0.027,1.004,-33.000,-12.000,-78.000,-0.061,-0.122,0.061,-0.01,-0.03,0.02
0.007,-0.024,1.006,-33.000,-12.000,-78.000,-0.061,-0.122,0.000,-0.01,-0.03,0.02
0.009,-0.026,1.006,-32.000,-12.000,-75.000,-0.122,-0.122,0.000,-0.01,-0.03,0.02
0.008,-0.026,1.006,-32.000,-12.000,-75.000,-0.061,-0.061,0.061,-0.01,-0.03,0.02
0.007,-0.026,1.006,-32.000,-12.000,-75.000,-0.061,-0.122,0.061,-0.01,-0.02,0.02
0.008,-0.026,1.005,-32.000,-12.000,-75.000,-0.061,-0.122,0.061,-0.01,-0.03,0.02
0.008,-0.027,1.004,-32.000,-12.000,-75.000,-0.122,-0.122,0.000,-0.01,-0.03,0.02
0.008,-0.025,1.005,-31.000,-9.000,-75.000,-0.061,-0.122,0.061,-0.01,-0.03,0.02
0.007,-0.024,1.005,-31.000,-9.000,-75.000,0.000,-0.122,0.000,-0.01,-0.02,0.02
0.007,-0.025,1.004,-31.000,-9.000,-75.000,0.000,-0.122,0.061,-0.01,-0.03,0.02
0.008,-0.026,1.004,-31.000,-9.000,-75.000,0.000,-0.183,0.061,-0.01,-0.03,0.02
0.007,-0.026,1.005,-31.000,-9.000,-75.000,0.000,-0.122,0.061,-0.01,-0.03,0.02
0.007,-0.025,1.005,-32.000,-13.000,-71.000,-0.061,-0.061,0.061,-0.01,-0.02,0.02
0.008,-0.026,1.004,-32.000,-13.000,-71.000,0.000,-0.122,0.000,-0.01,-0.03,0.02
0.008,-0.025,1.004,-32.000,-13.000,-71.000,-0.061,-0.122,0.061,-0.01,-0.02,0.02
0.008,-0.026,1.005,-32.000,-13.000,-71.000,-0.061,-0.122,0.000,-0.01,-0.03,0.02
0.007,-0.026,1.003,-32.000,-13.000,-71.000,-0.061,-0.122,0.000,-0.01,-0.03,0.02
0.007,-0.025,1.005,-32.000,-13.000,-71.000,-0.122,-0.061,0.061,-0.01,-0.02,0.02
0.010,-0.026,1.005,-32.000,-12.000,-75.000,0.000,-0.122,0.061,-0.01,-0.03,0.02
0.008,-0.025,1.004,-32.000,-12.000,-75.000,0.000,-0.061,0.061,-0.01,-0.02,0.02
0.007,-0.025,1.004,-32.000,-12.000,-75.000,0.000,-0.122,0.061,-0.01,-0.02,0.02
0.010,-0.027,1.006,-32.000,-12.000,-75.000,0.000,-0.183,0.061,-0.01,-0.02,0.02
0.007,-0.025,1.005,-32.000,-12.000,-75.000,-0.061,-0.122,0.061,-0.01,-0.03,0.02
0.008,-0.026,1.004,-32.000,-11.000,-75.000,-0.061,-0.183,0.061,-0.01,-0.03,0.02
0.008,-0.024,1.005,-32.000,-11.000,-75.000,-0.061,-0.183,0.061,-0.01,-0.02,0.02
0.007,-0.025,1.004,-32.000,-11.000,-75.000,0.000,-0.183,0.061,-0.01,-0.02,0.02
0.008,-0.026,1.005,-32.000,-11.000,-75.000,-0.061,-0.122,0.061,-0.01,-0.03,0.02
0.007,-0.025,1.005,-32.000,-11.000,-75.000,-0.061,-0.122,0.122,-0.01,-0.02,0.02
0.008,-0.025,1.005,-32.000,-11.000,-73.000,-0.061,-0.122,-0.061,-0.01,-0.03,0.02
0.008,-0.026,1.005,-32.000,-11.000,-73.000,-0.061,-0.122,0.061,-0.01,-0.03,0.02
0.007,-0.026,1.005,-32.000,-11.000,-73.000,0.000,-0.122,0.061,-0.01,-0.02,0.02
0.009,-0.026,1.005,-32.000,-11.000,-73.000,-0.061,-0.122,0.061,-0.01,-0.03,0.02
0.008,-0.025,1.006,-32.000,-11.000,-73.000,-0.061,-0.061,0.061,-0.01,-0.02,0.02
0.008,-0.026,1.005,-32.000,-14.000,-73.000,0.000,-0.122,0.061,-0.01,-0.03,0.02
0.008,-0.026,1.004,-32.000,-14.000,-73.000,0.000,-0.122,0.061,-0.01,-0.03,0.02
0.006,-0.025,1.006,-32.000,-14.000,-73.000,-0.061,-0.122,0.000,-0.01,-0.03,0.02
0.008,-0.025,1.006,-32.000,-14.000,-73.000,0.000,-0.122,0.061,-0.01,-0.02,0.02
0.008,-0.025,1.004,-32.000,-14.000,-73.000,0.000,-0.122,0.000,-0.01,-0.03,0.02
0.008,-0.025,1.005,-32.000,-10.000,-76.000,0.000,-0.122,0.000,-0.01,-0.03,0.02
0.008,-0.027,1.005,-32.000,-10.000,-76.000,-0.122,-0.183,0.000,-0.01,-0.03,0.02
0.008,-0.027,1.004,-32.000,-10.000,-76.000,-0.061,-0.122,0.000,-0.01,-0.03,0.02
0.007,-0.025,1.004,-32.000,-10.000,-76.000,-0.061,0.000,0.061,-0.01,-0.02,0.02
0.008,-0.026,1.004,-32.000,-10.000,-76.000,-0.061,-0.122,0.122,-0.01,-0.03,0.02
0.006,-0.025,1.006,-32.000,-10.000,-76.000,-0.122,-0.061,0.061,-0.01,-0.03,0.02
0.008,-0.026,1.004,-33.000,-12.000,-69.000,-0.061,-0.122,0.000,-0.01,-0.03,0.02
0.007,-0.025,1.004,-33.000,-12.000,-69.000,-0.061,-0.183,0.000,-0.01,-0.02,0.02
0.009,-0.026,1.006,-33.000,-12.000,-69.000,-0.061,-0.183,0.000,-0.01,-0.03,0.02
0.008,-0.026,1.005,-33.000,-12.000,-69.000,-0.061,-0.122,0.000,-0.01,-0.02,0.02
0.007,-0.024,1.005,-33.000,-12.000,-69.000,0.000,-0.122,0.061,-0.01,-0.02,0.02
0.008,-0.026,1.006,-33.000,-11.000,-75.000,-0.061,-0.183,0.000,-0.01,-0.02,0.02
0.009,-0.026,1.005,-33.000,-11.000,-75.000,-0.061,-0.122,0.000,-0.01,-0.03,0.02
0.007,-0.025,1.005,-33.000,-11.000,-75.000,0.000,-0.122,0.061,-0.01,-0.03,0.02
0.007,-0.025,1.003,-33.000,-11.000,-75.000,-0.061,-0.183,0.061,-0.01,-0.03,0.02
0.008,-0.026,1.005,-33.000,-11.000,-75.000,-0.061,-0.183,0.000,-0.01,-0.03,0.02
0.007,-0.026,1.005,-33.000,-11.000,-77.000,-0.061,-0.183,0.000,-0.01,-0.03,0.02
0.009,-0.027,1.005,-33.000,-11.000,-77.000,0.000,-0.122,0.061,-0.01,-0.03,0.02
0.008,-0.025,1.007,-33.000,-11.000,-77.000,0.061,-0.122,0.061,-0.01,-0.02,0.02
0.008,-0.026,1.004,-33.000,-11.000,-77.000,-0.061,-0.122,0.061,-0.01,-0.03,0.02
0.008,-0.026,1.004,-33.000,-11.000,-77.000,-0.061,-0.122,0.061,-0.01,-0.02,0.02
0.007,-0.026,1.007,-31.000,-14.000,-72.000,0.000,-0.122,0.061,-0.01,-0.03,0.02
0.008,-0.026,1.006,-31.000,-14.000,-72.000,-0.061,-0.061,0.122,-0.01,-0.03,0.02
0.008,-0.026,1.004,-31.000,-14.000,-72.000,-0.061,-0.122,0.000,-0.01,-0.03,0.02
0.007,-0.026,1.005,-31.000,-14.000,-72.000,-0.061,-0.061,0.061,-0.01,-0.03,0.02
0.008,-0.025,1.006,-31.000,-14.000,-72.000,0.000,-0.061,0.000,-0.01,-0.03,0.02
0.008,-0.024,1.006,-31.000,-14.000,-72.000,0.000,-0.122,-0.061,-0.01,-0.02,0.02
0.009,-0.026,1.003,-31.000,-11.000,-71.000,-0.061,-0.122,-0.061,-0.01,-0.03,0.02
0.007,-0.026,1.004,-31.000,-11.000,-71.000,-0.061,-0.122,0.061,-0.01,-0.03,0.02
0.008,-0.025,1.005,-31.000,-11.000,-71.000,0.000,-0.183,0.061,-0.01,-0.02,0.02
0.007,-0.025,1.004,-31.000,-11.000,-71.000,0.000,-0.122,0.061,-0.01,-0.03,0.02
0.007,-0.026,1.004,-31.000,-11.000,-71.000,0.000,-0.061,0.000,-0.01,-0.03,0.02
0.008,-0.026,1.005,-31.000,-12.000,-71.000,0.061,-0.122,0.061,-0.01,-0.03,0.02
0.008,-0.026,1.006,-31.000,-12.000,-71.000,-0.061,-0.183,0.000,-0.01,-0.03,0.02
0.007,-0.025,1.004,-31.000,-12.000,-71.000,-0.122,-0.183,0.000,-0.01,-0.03,0.02
0.008,-0.026,1.005,-31.000,-12.000,-71.000,-0.061,-0.122,0.061,-0.01,-0.03,0.02
0.008,-0.026,1.005,-31.000,-12.000,-71.000,0.061,-0.122,0.061,-0.01,-0.03,0.02
0.007,-0.027,1.005,-31.000,-11.000,-72.000,0.061,-0.183,0.122,-0.01,-0.03,0.02
0.008,-0.027,1.005,-31.000,-11.000,-72.000,-0.061,-0.122,0.061,-0.01,-0.03,0.02
0.008,-0.025,1.006,-31.000,-11.000,-72.000,0.000,-0.061,0.061,-0.01,-0.02,0.02
0.009,-0.025,1.005,-31.000,-11.000,-72.000,0.000,-0.122,-0.061,-0.01,-0.03,0.02
0.007,-0.025,1.005,-31.000,-11.000,-72.000,0.000,-0.122,0.000,-0.01,-0.02,0.02
0.007,-0.026,1.005,-32.000,-12.000,-76.000,0.061,-0.183,0.061,-0.01,-0.03,0.02
0.008,-0.027,1.005,-32.000,-12.000,-76.000,-0.061,-0.061,0.061,-0.01,-0.03,0.02
0.007,-0.025,1.005,-32.000,-12.000,-76.000,-0.061,-0.122,0.000,-0.01,-0.03,0.02
0.007,-0.025,1.005,-32.000,-12.000,-76.000,0.000,-0.183,0.000,-0.01,-0.02,0.02
0.008,-0.026,1.005,-32.000,-12.000,-76.000,0.000,-0.122,0.000,-0.01,-0.03,0.02
0.008,-0.024,1.006,-32.000,-12.000,-76.000,0.000,-0.122,0.000,-0.01,-0.02,0.02
0.009,-0.027,1.005,-32.000,-10.000,-74.000,0.000,-0.183,0.000,-0.01,-0.03,0.02
0.008,-0.026,1.006,-32.000,-10.000,-74.000,-0.061,-0.122,0.000,-0.01,-0.03,0.02
0.008,-0.025,1.005,-32.000,-10.000,-74.000,0.000,-0.183,0.000,-0.01,-0.02,0.02
0.010,-0.025,1.005,-32.000,-10.000,-74.000,-0.061,-0.061,0.061,-0.01,-0.03,0.02
0.007,-0.025,1.006,-32.000,-10.000,-74.000,0.000,-0.122,0.000,-0.01,-0.03,0.02
0.007,-0.026,1.005,-30.000,-12.000,-73.000,0.000,-0.183,0.061,-0.01,-0.03,0.02
0.008,-0.026,1.004,-30.000,-12.000,-73.000,0.000,-0.183,0.061,-0.01,-0.03,0.02
0.007,-0.025,1.006,-30.000,-12.000,-73.000,-0.061,-0.122,0.000,-0.01,-0.02,0.02
0.008,-0.025,1.004,-30.000,-12.000,-73.000,-0.061,-0.122,0.061,-0.01,-0.02,0.02
0.006,-0.024,1.005,-30.000,-12.000,-73.000,0.000,-0.122,0.061,-0.01,-0.02,0.02
0.007,-0.025,1.005,-30.000,-9.000,-76.000,0.000,-0.061,0.061,-0.01,-0.02,0.02
0.008,-0.026,1.004,-30.000,-9.000,-76.000,-0.061,-0.061,0.061,-0.01,-0.03,0.02
0.007,-0.025,1.005,-30.000,-9.000,-76.000,0.000,-0.183,0.061,-0.01,-0.02,0.02
0.009,-0.026,1.005,-30.000,-9.000,-76.000,0.000,-0.122,0.061,-0.01,-0.03,0.02
0.009,-0.026,1.005,-30.000,-9.000,-76.000,-0.061,-0.183,0.000,-0.01,-0.03,0.02
0.008,-0.024,1.005,-34.000,-13.000,-73.000,-0.061,-0.183,0.000,-0.01,-0.02,0.02
0.008,-0.026,1.005,-34.000,-13.000,-73.000,-0.061,-0.061,0.061,-0.01,-0.03,0.02
0.009,-0.026,1.005,-34.000,-13.000,-73.000,0.000,-0.122,0.061,-0.01,-0.03,0.02
0.008,-0.024,1.005,-34.000,-13.000,-73.000,0.000,-0.122,0.061,-0.01,-0.02,0.02
0.009,-0.026,1.005,-34.000,-13.000,-73.000,0.000,-0.122,0.000,-0.01,-0.03,0.02
0.008,-0.024,1.004,-35.000,-10.000,-75.000,0.000,-0.122,0.061,-0.01,-0.02,0.02
0.008,-0.027,1.004,-35.000,-10.000,-75.000,0.000,-0.183,0.061,-0.01,-0.03,0.02
0.009,-0.026,1.004,-35.000,-10.000,-75.000,0.000,-0.183,0.000,-0.01,-0.03,0.02
0.008,-0.025,1.005,-35.000,-10.000,-75.000,0.061,-0.122,0.000,-0.01,-0.03,0.02
0.010,-0.026,1.005,-35.000,-10.000,-75.000,-0.061,-0.122,0.061,-0.01,-0.03,0.02
0.009,-0.027,1.005,-35.000,-10.000,-75.000,-0.061,-0.122,0.000,-0.01,-0.03,0.02
0.008,-0.024,1.004,-31.000,-13.000,-70.000,-0.061,-0.122,0.061,-0.01,-0.02,0.02
0.008,-0.026,1.005,-31.000,-13.000,-70.000,-0.061,-0.122,0.000,-0.01,-0.03,0.02
0.007,-0.025,1.004,-31.000,-13.000,-70.000,-0.061,-0.183,0.061,-0.01,-0.02,0.02
0.008,-0.026,1.005,-31.000,-13.000,-70.000,0.000,-0.122,0.061,-0.01,-0.03,0.02
0.009,-0.026,1.005,-31.000,-13.000,-70.000,0.000,-0.122,0.061,-0.01,-0.03,0.02
0.008,-0.025,1.006,-31.000,-12.000,-78.000,-0.061,-0.183,0.061,-0.01,-0.03,0.02
0.010,-0.026,1.004,-31.000,-12.000,-78.000,0.061,-0.183,0.000,-0.01,-0.03,0.02
0.007,-0.025,1.004,-31.000,-12.000,-78.000,0.000,-0.061,0.061,-0.01,-0.03,0.02
0.008,-0.026,1.004,-31.000,-12.000,-78.000,0.000,-0.122,0.000,-0.01,-0.03,0.02
0.008,-0.027,1.004,-31.000,-12.000,-78.000,0.000,-0.122,0.122,-0.01,-0.03,0.02
0.007,-0.026,1.006,-32.000,-12.000,-73.000,0.000,-0.122,0.122,-0.01,-0.03,0.02
0.010,-0.026,1.006,-32.000,-12.000,-73.000,0.000,-0.183,0.122,-0.01,-0.03,0.02
0.010,-0.026,1.005,-32.000,-12.000,-73.000,0.000,-0.183,0.061,-0.01,-0.03,0.02
0.008,-0.025,1.005,-32.000,-12.000,-73.000,0.000,-0.183,0.061,-0.01,-0.02,0.02
0.009,-0.027,1.005,-32.000,-12.000,-73.000,-0.061,-0.122,0.061,-0.01,-0.03,0.02
0.006,-0.025,1.005,-33.000,-10.000,-72.000,-0.061,-0.122,0.122,-0.01,-0.03,0.02
0.008,-0.025,1.005,-33.000,-10.000,-72.000,-0.061,-0.122,0.061,-0.01,-0.02,0.02
0.010,-0.026,1.006,-33.000,-10.000,-72.000,-0.061,-0.122,0.000,-0.01,-0.03,0.02
0.008,-0.025,1.006,-33.000,-10.000,-72.000,-0.061,-0.122,0.061,-0.01,-0.02,0.02
0.009,-0.026,1.005,-33.000,-10.000,-72.000,-0.061,-0.183,0.122,-0.01,-0.03,0.02
0.009,-0.026,1.004,-33.000,-10.000,-72.000,0.000,-0.122,0.000,-0.01,-0.03,0.02
0.007,-0.026,1.005,-32.000,-12.000,-75.000,0.000,-0.122,0.000,-0.01,-0.03,0.02
0.009,-0.027,1.003,-32.000,-12.000,-75.000,0.000,-0.122,0.061,-0.01,-0.03,0.02
0.008,-0.026,1.005,-32.000,-12.000,-75.000,0.061,-0.061,0.061,-0.01,-0.03,0.02
0.009,-0.025,1.005,-32.000,-12.000,-75.000,0.000,-0.122,0.122,-0.01,-0.03,0.02
0.009,-0.026,1.004,-32.000,-12.000,-75.000,-0.061,-0.122,0.061,-0.01,-0.03,0.02
0.007,-0.025,1.004,-32.000,-13.000,-72.000,0.000,-0.122,0.061,-0.01,-0.02,0.02
0.009,-0.025,1.005,-32.000,-13.000,-72.000,0.000,-0.122,0.061,-0.01,-0.02,0.02
0.009,-0.025,1.005,-32.000,-13.000,-72.000,0.000,-0.061,0.000,-0.01,-0.02,0.02
0.009,-0.025,1.005,-32.000,-13.000,-72.000,-0.061,-0.122,0.000,-0.01,-0.02,0.02
0.010,-0.027,1.005,-32.000,-13.000,-72.000,0.000,-0.122,0.061,-0.01,-0.03,0.02
0.007,-0.026,1.005,-31.000,-12.000,-71.000,0.000,-0.061,0.000,-0.01,-0.03,0.02
0.009,-0.025,1.005,-31.000,-12.000,-71.000,-0.061,-0.061,0.061,-0.01,-0.02,0.02
0.009,-0.025,1.004,-31.000,-12.000,-71.000,-0.061,-0.122,0.061,-0.01,-0.03,0.02
0.007,-0.025,1.006,-31.000,-12.000,-71.000,-0.061,-0.183,0.061,-0.01,-0.02,0.02
0.009,-0.027,1.005,-31.000,-12.000,-71.000,-0.061,-0.122,0.061,-0.01,-0.03,0.02
0.009,-0.025,1.005,-30.000,-11.000,-72.000,0.000,-0.061,0.000,-0.01,-0.02,0.02
0.008,-0.026,1.004,-30.000,-11.000,-72.000,0.000,-0.122,0.000,-0.01,-0.03,0.02
0.008,-0.027,1.005,-30.000,-11.000,-72.000,-0.061,-0.122,0.061,-0.01,-0.03,0.02
0.007,-0.025,1.005,-30.000,-11.000,-72.000,-0.061,-0.061,0.000,-0.01,-0.03,0.02
0.009,-0.026,1.005,-30.000,-11.000,-72.000,-0.061,-0.122,0.061,-0.01,-0.03,0.02
0.009,-0.026,1.005,-30.000,-11.000,-72.000,-0.061,-0.122,0.061,-0.01,-0.03,0.02
0.008,-0.025,1.005,-31.000,-10.000,-79.000,0.000,-0.122,0.000,-0.01,-0.02,0.02
0.008,-0.025,1.005,-31.000,-10.000,-79.000,0.000,-0.061,0.061,-0.01,-0.03,0.02
0.008,-0.025,1.004,-31.000,-10.000,-79.000,0.000,-0.122,0.061,-0.01,-0.02,0.02
0.008,-0.025,1.004,-31.000,-10.000,-79.000,0.000,-0.122,-0.061,-0.01,-0.03,0.02
0.009,-0.026,1.004,-31.000,-10.000,-79.000,-0.061,-0.061,0.000,-0.01,-0.03,0.02
0.008,-0.027,1.005,-31.000,-10.000,-75.000,0.000,-0.061,0.061,-0.01,-0.03,0.02
0.008,-0.027,1.005,-31.000,-10.000,-75.000,0.000,-0.122,0.000,-0.01,-0.03,0.02
0.007,-0.025,1.005,-31.000,-10.000,-75.000,-0.061,-0.122,0.000,-0.01,-0.03,0.02
0.007,-0.025,1.005,-31.000,-10.000,-75.000,-0.061,-0.122,0.000,-0.01,-0.02,0.02
0.009,-0.026,1.005,-31.000,-10.000,-75.000,0.000,-0.122,0.000,-0.01,-0.02,0.02
0.008,-0.025,1.005,-33.000,-12.000,-74.000,-0.061,-0.061,0.061,-0.01,-0.02,0.02
0.009,-0.026,1.004,-33.000,-12.000,-74.000,-0.061,-0.122,0.061,-0.01,-0.02,0.02
0.007,-0.026,1.005,-33.000,-12.000,-74.000,-0.061,-0.122,0.061,-0.01,-0.03,0.02
0.007,-0.026,1.006,-33.000,-12.000,-74.000,0.000,-0.122,0.000,-0.01,-0.03,0.02
0.008,-0.027,1.005,-33.000,-12.000,-74.000,0.000,-0.122,0.061,-0.01,-0.03,0.02
0.008,-0.025,1.005,-33.000,-11.000,-78.000,-0.061,-0.061,0.061,-0.01,-0.03,0.02
0.008,-0.026,1.004,-33.000,-11.000,-78.000,-0.061,-0.061,0.000,-0.01,-0.03,0.02
0.009,-0.027,1.004,-33.000,-11.000,-78.000,-0.061,-0.183,0.061,-0.01,-0.03,0.02
0.008,-0.026,1.006,-33.000,-11.000,-78.000,-0.061,-0.183,0.061,-0.01,-0.02,0.02
0.008,-0.026,1.005,-33.000,-11.000,-78.000,0.000,-0.122,0.000,-0.01,-0.03,0.02
